Month, Day, Year, Hour, Minute, Second, Milliseconds, Sample Time (ms), Acc_X, Acc_Y, Acc_Z, linAcc_X, linAcc_Y, linAcc_Z, gyro_X, gyro_Y, gyro_Y, mag_X, mag_Y, mag_Z, quatI, quatJ, quatK, Lattitude, Longitude
10,2,2023,19,42,12,281,20,-0.305,0.469,9.645,1000,1000,1000,1000,1000,1000,1000,1000,1000,1000,1000,1000,1000,1000
10,2,2023,19,42,12,346,20,-0.34,0.508,9.605,1000,1000,1000,1000,1000,1000,1000,1000,1000,1000,1000,1000,1000,1000
10,2,2023,19,42,12,386,20,-0.34,0.469,9.641,1000,1000,1000,1000,1000,1000,1000,1000,1000,1000,1000,1000,1000,1000
10,2,2023,19,42,12,426,20,-0.34,0.469,9.641,1000,1000,1000,1000,1000,1000,1000,1000,1000,1000,1000,1000,1000,1000
10,2,2023,19,42,12,446,20,-0.34,0.508,9.641,1000,1000,1000,1000,1000,1000,1000,1000,1000,1000,1000,1000,1000,1000
10,2,2023,19,42,12,466,20,-0.34,0.508,9.641,0.004,0.016,-0.016,1000,1000,1000,1000,1000,1000,1000,1000,1000,1000,1000
10,2,2023,19,42,12,486,20,-0.305,0.508,9.684,0.004,0.016,-0.016,1000,1000,1000,1000,1000,1000,1000,1000,1000,1000,1000
10,2,2023,19,42,12,506,20,-0.305,0.508,9.684,0.004,-0.023,0.023,1000,1000,1000,1000,1000,1000,1000,1000,1000,1000,1000
10,2,2023,19,42,12,526,20,-0.34,0.469,9.605,0.004,-0.023,0.023,1000,1000,1000,1000,1000,1000,1000,1000,1000,1000,1000
10,2,2023,19,42,12,546,20,-0.34,0.469,9.605,0.004,-0.023,0.023,1000,1000,1000,1000,1000,1000,0.004,0.032,0.756,1000,1000
10,2,2023,19,42,12,566,20,-0.34,0.508,9.641,0.004,-0.023,0.023,1000,1000,1000,1000,1000,1000,0.004,0.032,0.756,1000,1000
10,2,2023,19,42,12,586,20,-0.34,0.508,9.641,0.004,-0.023,0.023,1000,1000,1000,23.812,-4.188,-31.375,0.004,0.032,0.756,1000,1000
10,2,2023,19,42,12,606,20,-0.34,0.508,9.641,0.004,-0.023,0.023,1000,1000,1000,23.812,-4.188,-31.375,0.004,0.032,0.756,1000,1000
10,2,2023,19,42,12,626,20,-0.34,0.508,9.605,0.004,-0.023,0.023,1000,1000,1000,23.812,-4.188,-31.375,0.004,0.032,0.756,1000,1000
10,2,2023,19,42,12,646,20,-0.34,0.508,9.605,0.004,-0.023,0.023,1000,1000,1000,23.75,-5.062,-30.875,0.004,0.032,0.756,1000,1000
10,2,2023,19,42,13,666,20,-0.34,0.508,9.605,0.004,-0.023,0.023,1000,1000,1000,24.062,-4.75,-30.375,0.004,0.032,0.756,1000,1000
10,2,2023,19,42,13,686,20,-0.34,0.508,9.605,0.039,0.023,-0.023,1000,1000,1000,24.062,-4.75,-30.375,0.004,0.032,0.756,1000,1000
10,2,2023,19,42,13,706,20,-0.34,0.469,9.605,0.039,0.023,-0.023,1000,1000,1000,24.062,-4.75,-30.375,0.004,0.032,0.756,1000,1000
10,2,2023,19,42,13,726,20,-0.34,0.469,9.605,0.004,-0.016,0.008,1000,1000,1000,24.062,-4.75,-30.375,0.004,0.032,0.756,1000,1000
10,2,2023,19,42,13,746,20,-0.34,0.469,9.605,0.004,-0.016,0.008,1000,1000,1000,23.312,-2.75,-30.438,0.004,0.032,0.756,1000,1000
10,2,2023,19,42,13,766,20,-0.34,0.469,9.605,-0.035,0.023,0.008,1000,1000,1000,23.312,-2.75,-30.438,0.004,0.032,0.756,1000,1000
10,2,2023,19,42,13,786,20,-0.34,0.469,9.605,-0.035,0.023,0.008,1000,1000,1000,24.562,-5.25,-32.75,0.004,0.032,0.756,1000,1000
10,2,2023,19,42,13,806,20,-0.34,0.469,9.605,-0.035,0.023,0.008,1000,1000,1000,24.5,-4.188,-30.375,0.004,0.032,0.756,1000,1000
10,2,2023,19,42,13,826,20,-0.34,0.469,9.605,-0.035,0.023,0.008,1000,1000,1000,23.375,-5.75,-29.438,0.004,0.032,0.756,1000,1000
10,2,2023,19,42,13,846,20,-0.34,0.508,9.605,-0.035,0.023,0.008,1000,1000,1000,23.375,-5.75,-29.438,0.004,0.032,0.756,1000,1000
10,2,2023,19,42,13,866,20,-0.34,0.508,9.605,0.004,-0.016,0.008,1000,1000,1000,23.375,-5.75,-29.438,0.004,0.032,0.756,1000,1000
10,2,2023,19,42,13,886,20,-0.34,0.508,9.605,0.004,-0.016,0.008,1000,1000,1000,23.938,-4.5,-27.5,0.004,0.032,0.756,1000,1000
10,2,2023,19,42,13,906,20,-0.34,0.508,9.605,0.004,-0.016,0.008,1000,1000,1000,23.938,-4.5,-27.5,0.004,0.032,0.756,1000,1000
10,2,2023,19,42,13,926,20,-0.34,0.508,9.605,0.004,-0.016,0.008,1000,1000,1000,24.062,-4.75,-30.938,0.004,0.032,0.756,1000,1000
10,2,2023,19,42,13,946,20,-0.34,0.508,9.605,0.004,-0.016,0.008,1000,1000,1000,24.125,-4.75,-29.438,0.004,0.032,0.756,1000,1000
10,2,2023,19,42,13,966,20,-0.34,0.508,9.605,0.004,-0.016,0.008,1000,1000,1000,22.25,-5.812,-31.5,0.004,0.032,0.756,1000,1000
10,2,2023,19,42,13,986,20,-0.34,0.508,9.605,0.004,-0.016,0.008,1000,1000,1000,23.75,-5.062,-30.938,0.004,0.032,0.756,1000,1000
10,2,2023,19,42,13,6,20,-0.34,0.508,9.605,0.004,0.023,0.039,1000,1000,1000,23.75,-5.062,-30.938,0.004,0.032,0.756,1000,1000
10,2,2023,19,42,13,26,20,-0.34,0.508,9.605,0.004,0.023,0.039,1000,1000,1000,23.438,-4.812,-30.5,0.004,0.032,0.756,1000,1000
10,2,2023,19,42,13,46,20,-0.34,0.508,9.605,0.004,-0.016,0,1000,1000,1000,23.438,-4.812,-30.5,0.004,0.032,0.756,1000,1000
10,2,2023,19,42,13,66,20,-0.34,0.508,9.605,0.004,-0.023,0,1000,1000,1000,23.438,-4.812,-30.5,0.004,0.032,0.756,1000,1000
10,2,2023,19,42,13,86,20,-0.34,0.508,9.605,0.004,-0.023,0,1000,1000,1000,23.438,-4.812,-30.5,0.003,0.031,0.756,1000,1000
10,2,2023,19,42,13,106,20,-0.379,0.469,9.605,0.004,-0.023,0,1000,1000,1000,23.438,-4.812,-30.5,0.003,0.031,0.756,1000,1000
10,2,2023,19,42,13,126,20,-0.34,0.469,9.641,0.004,-0.023,0,1000,1000,1000,23.438,-4.812,-30.5,0.003,0.031,0.756,1000,1000
10,2,2023,19,42,13,146,20,-0.34,0.469,9.641,0.004,-0.023,0,1000,1000,1000,23.438,-4.25,-31,0.003,0.031,0.756,1000,1000
10,2,2023,19,42,13,166,20,-0.34,0.469,9.641,0.004,-0.023,0,1000,1000,1000,24.312,-5.625,-30.875,0.003,0.031,0.756,1000,1000
10,2,2023,19,42,13,186,20,-0.34,0.469,9.641,-0.035,-0.016,-0.039,1000,1000,1000,24.312,-5.625,-30.875,0.003,0.031,0.756,1000,1000
10,2,2023,19,42,13,206,20,-0.34,0.469,9.641,-0.035,-0.016,-0.039,1000,1000,1000,23.688,-4.562,-26.625,0.003,0.031,0.756,1000,1000
10,2,2023,19,42,13,226,20,-0.34,0.469,9.641,0.004,0.023,0,1000,1000,1000,23.688,-4.562,-26.625,0.003,0.031,0.756,1000,1000
10,2,2023,19,42,13,246,20,-0.34,0.469,9.641,0.004,0.023,0,1000,1000,1000,23.188,-4.875,-29.062,0.003,0.031,0.756,1000,1000
10,2,2023,19,42,13,266,20,-0.34,0.469,9.641,0.004,0.031,0.039,1000,1000,1000,23.188,-4.875,-29.062,0.003,0.031,0.756,1000,1000
10,2,2023,19,42,13,286,20,-0.34,0.469,9.68,0.004,0.031,0.039,1000,1000,1000,23.188,-4.875,-29.062,0.003,0.031,0.756,1000,1000
10,2,2023,19,42,13,306,20,-0.34,0.469,9.68,0.004,0.031,0.039,1000,1000,1000,23.125,-5.188,-29.062,0.003,0.031,0.756,1000,1000
10,2,2023,19,42,13,326,20,-0.34,0.469,9.68,0.004,0.031,0.039,1000,1000,1000,23.75,-4.188,-32,0.003,0.031,0.756,1000,1000
10,2,2023,19,42,13,346,20,-0.34,0.469,9.68,0.004,0.031,0.039,1000,1000,1000,23.625,-6,-31.5,0.003,0.031,0.756,1000,1000
10,2,2023,19,42,13,366,20,-0.34,0.469,9.68,0.004,-0.016,0,1000,1000,1000,23.625,-6,-31.5,0.003,0.031,0.756,1000,1000
10,2,2023,19,42,13,386,20,-0.34,0.469,9.68,0.004,-0.016,0,0,0,0,23.625,-6,-31.5,0.003,0.031,0.756,1000,1000
10,2,2023,19,42,13,406,20,-0.34,0.469,9.68,0.004,-0.016,0,0,0,0,24.812,-4.125,-30.5,0.003,0.031,0.756,1000,1000
10,2,2023,19,42,13,426,20,-0.34,0.469,9.68,0.004,-0.016,0,0,0,0,24.438,-4.188,-31,0.003,0.031,0.756,1000,1000
10,2,2023,19,42,13,446,20,-0.34,0.469,9.68,0.004,-0.016,0,0,0,0,24.062,-4.75,-30.438,0.003,0.031,0.756,1000,1000
10,2,2023,19,42,13,466,20,-0.34,0.469,9.641,0.004,-0.016,0,0,0,0,24.062,-4.75,-30.438,0.003,0.031,0.756,1000,1000
10,2,2023,19,42,13,486,20,-0.34,0.469,9.641,0.004,-0.016,0,0,0,0,23.938,-5.375,-31.938,0.003,0.031,0.756,1000,1000
10,2,2023,19,42,13,506,20,-0.34,0.469,9.641,0.004,-0.016,0,0,0,0,23.438,-4.25,-31.062,0.003,0.031,0.756,1000,1000
10,2,2023,19,42,13,526,20,-0.34,0.469,9.641,0.004,-0.016,0,0,0,0,24.375,-3,-27.625,0.003,0.031,0.756,1000,1000
10,2,2023,19,42,13,546,20,-0.34,0.469,9.641,0.039,0.023,0,0,0,0,24.375,-3,-27.625,0.003,0.031,0.756,1000,1000
10,2,2023,19,42,13,566,20,-0.34,0.508,9.68,0.039,0.023,0,0,0,0,24.375,-3,-27.625,0.003,0.031,0.756,1000,1000
10,2,2023,19,42,13,586,20,-0.34,0.508,9.68,0.039,-0.016,0,0,0,0,24.375,-3,-27.625,0.003,0.031,0.756,1000,1000
10,2,2023,19,42,13,606,20,-0.34,0.508,9.68,0.039,-0.016,0,0,0,0,23.5,-4.25,-30.562,0.003,0.031,0.756,1000,1000
10,2,2023,19,42,13,626,20,-0.34,0.508,9.68,0.039,-0.016,0,0,0,0,23.5,-4.25,-30.562,0.003,0.031,0.756,1000,1000
10,2,2023,19,42,13,646,20,-0.34,0.508,9.68,0.039,-0.016,0,0,0,0,23.5,-4.25,-30.562,0.003,0.031,0.756,1000,1000
10,2,2023,19,42,13,666,20,-0.34,0.508,9.68,0.039,-0.016,0,0,0,0,23.5,-4.25,-30.562,0.003,0.031,0.756,1000,1000
10,2,2023,19,42,14,686,20,-0.379,0.469,9.641,0.039,-0.016,0,0,0,0,23.5,-4.25,-30.562,0.003,0.031,0.756,1000,1000
10,2,2023,19,42,14,706,20,-0.379,0.469,9.641,0.039,-0.016,0,0,0,0,24.25,-4.812,-27.125,0.003,0.031,0.756,1000,1000
10,2,2023,19,42,14,726,20,-0.34,0.469,9.641,0.039,-0.016,0,0,0,0,24.25,-4.812,-27.125,0.003,0.031,0.756,1000,1000
10,2,2023,19,42,14,746,20,-0.34,0.469,9.641,0.039,-0.016,0,0,0,0,24.25,-4.812,-27.125,0.003,0.031,0.756,1000,1000
10,2,2023,19,42,14,766,20,-0.34,0.469,9.68,0.039,-0.016,0,0,0,0,24.25,-4.812,-27.125,0.003,0.031,0.756,1000,1000
10,2,2023,19,42,14,786,20,-0.34,0.469,9.68,0.039,-0.016,0,0,0,0,24.25,-4.812,-27.125,0.003,0.031,0.756,1000,1000
10,2,2023,19,42,14,806,20,-0.34,0.469,9.641,0.039,-0.016,0,0,0,0,24.25,-4.812,-27.125,0.003,0.031,0.756,1000,1000
10,2,2023,19,42,14,826,20,-0.34,0.508,9.605,0.039,-0.016,0,0,0,0,24.25,-4.812,-27.125,0.003,0.031,0.756,1000,1000
10,2,2023,19,42,14,846,20,-0.34,0.508,9.605,0.039,-0.016,0,0,0,0,23.75,-4.75,-31,0.003,0.031,0.756,1000,1000
10,2,2023,19,42,14,866,20,-0.34,0.508,9.605,0.039,-0.016,0,0,0,0,23.75,-4.75,-31,0.003,0.031,0.756,1000,1000
10,2,2023,19,42,14,886,20,-0.34,0.508,9.605,0.039,-0.016,0,0,0,0,23.75,-4.75,-31,0.003,0.031,0.756,1000,1000
10,2,2023,19,42,14,906,20,-0.34,0.508,9.605,0.039,-0.016,0,0,0,0,22.75,-5.188,-30.125,0.003,0.031,0.756,1000,1000
10,2,2023,19,42,14,926,20,-0.34,0.508,9.605,0.039,-0.016,0,0,0,0,22.75,-5.188,-30.125,0.003,0.031,0.756,1000,1000
10,2,2023,19,42,14,946,20,-0.34,0.508,9.605,0.004,0.023,-0.008,0,0,0,22.75,-5.188,-30.125,0.003,0.031,0.756,1000,1000
10,2,2023,19,42,14,966,20,-0.34,0.508,9.605,0.004,-0.055,-0.008,0,0,0,22.75,-5.188,-30.125,0.003,0.031,0.756,1000,1000
10,2,2023,19,42,14,986,20,-0.34,0.508,9.605,0.004,-0.055,-0.008,0,0,0,22.75,-5.188,-30.125,0.003,0.031,0.756,1000,1000
10,2,2023,19,42,14,6,20,-0.34,0.508,9.605,0.004,-0.055,-0.008,0,0,0,22.75,-5.188,-30.125,0.003,0.031,0.756,1000,1000
10,2,2023,19,42,14,26,20,-0.34,0.508,9.605,0.004,-0.055,-0.008,0,0,0,22.75,-5.188,-30.125,0.003,0.031,0.756,1000,1000
10,2,2023,19,42,14,46,20,-0.34,0.508,9.605,0.004,-0.016,-0.008,0,0,0,22.75,-5.188,-30.125,0.003,0.031,0.756,1000,1000
10,2,2023,19,42,14,66,20,-0.34,0.508,9.605,0.004,-0.016,-0.008,0,0,0,22.75,-5.188,-30.125,0.003,0.031,0.756,1000,1000
10,2,2023,19,42,14,86,20,-0.34,0.508,9.605,0.004,-0.016,-0.008,0,0,0,22.75,-5.188,-30.125,0.003,0.031,0.756,1000,1000
10,2,2023,19,42,14,106,20,-0.34,0.469,9.641,0.004,-0.016,-0.008,0,0,0,22.75,-5.188,-30.125,0.003,0.031,0.756,1000,1000
10,2,2023,19,42,14,126,20,-0.34,0.469,9.641,0.004,-0.016,-0.008,0,0,0,22.75,-5.188,-30.125,0.003,0.031,0.756,1000,1000
10,2,2023,19,42,14,146,20,-0.34,0.469,9.641,0.004,-0.016,-0.008,0,0,0,22.75,-5.188,-30.125,0.003,0.031,0.756,1000,1000
10,2,2023,19,42,14,166,20,-0.34,0.469,9.641,0.004,-0.016,-0.008,0,0,0,22.75,-5.188,-30.125,0.003,0.031,0.756,1000,1000
10,2,2023,19,42,14,186,20,-0.379,0.508,9.641,0.004,-0.016,-0.008,0,0,0,22.75,-5.188,-30.125,0.003,0.031,0.756,1000,1000
10,2,2023,19,42,14,206,20,-0.379,0.508,9.641,0.004,0.023,-0.008,0,0,0,22.75,-5.188,-30.125,0.003,0.031,0.756,1000,1000
10,2,2023,19,42,14,226,20,-0.379,0.508,9.641,0.004,0.023,-0.008,0,0,0,22.75,-5.188,-30.125,0.003,0.031,0.756,1000,1000
10,2,2023,19,42,14,246,20,-0.34,0.469,9.68,0.004,0.023,-0.008,0,0,0,22.75,-5.188,-30.125,0.003,0.031,0.756,1000,1000
10,2,2023,19,42,14,266,20,-0.34,0.469,9.68,0.004,0.023,-0.008,0,0,0,22.75,-5.188,-30.125,0.003,0.031,0.756,1000,1000
10,2,2023,19,42,14,286,20,-0.34,0.469,9.68,0.004,-0.016,0,0,0,0,22.75,-5.188,-30.125,0.003,0.031,0.756,1000,1000
10,2,2023,19,42,14,306,20,-0.34,0.469,9.68,0.004,-0.016,0,0,0,0,22.75,-5.188,-30.125,0.003,0.031,0.756,1000,1000
10,2,2023,19,42,14,326,20,-0.34,0.469,9.68,0.004,-0.016,0,0,0,0,22.75,-5.188,-30.125,0.003,0.031,0.756,1000,1000
10,2,2023,19,42,14,346,20,-0.34,0.469,9.68,0.004,-0.016,0,0,0,0,22.75,-5.188,-30.125,0.003,0.031,0.756,1000,1000
10,2,2023,19,42,14,366,20,-0.34,0.469,9.68,0.004,-0.016,0,0,0,0,22.75,-5.188,-30.125,0.003,0.031,0.756,1000,1000
10,2,2023,19,42,14,386,20,-0.34,0.469,9.68,0.004,-0.016,0,0,0,0,22.75,-5.188,-30.125,0.003,0.031,0.756,1000,1000
10,2,2023,19,42,14,406,20,-0.34,0.469,9.68,0.047,0.023,0.039,0,0,0,22.75,-5.188,-30.125,0.003,0.031,0.756,1000,1000
10,2,2023,19,42,14,426,20,-0.34,0.469,9.68,0.012,0.023,0,0,0,0,22.75,-5.188,-30.125,0.003,0.031,0.756,1000,1000
10,2,2023,19,42,14,446,20,-0.34,0.469,9.68,0.039,0.023,0,0,0,0,22.75,-5.188,-30.125,0.003,0.031,0.756,1000,1000
10,2,2023,19,42,14,466,20,-0.34,0.469,9.68,-0.035,-0.023,0,0,0,0,22.75,-5.188,-30.125,0.003,0.031,0.756,1000,1000
10,2,2023,19,42,14,486,20,-0.34,0.469,9.68,0.039,-0.023,0,0,0,0,22.75,-5.188,-30.125,0.003,0.031,0.756,1000,1000
10,2,2023,19,42,14,506,20,-0.34,0.469,9.68,0.039,-0.023,0,0,0,0,22.75,-5.188,-30.125,0.003,0.031,0.756,1000,1000
10,2,2023,19,42,14,526,20,-0.34,0.469,9.68,0.039,-0.023,0,0,0,0,22.75,-5.188,-30.125,0.003,0.031,0.756,1000,1000
10,2,2023,19,42,14,546,20,-0.34,0.469,9.68,0.039,-0.023,0,0,0,0,22.812,-5.5,-27.75,0.003,0.031,0.756,1000,1000
10,2,2023,19,42,14,566,20,-0.34,0.508,9.641,0.039,-0.023,0,0,0,0,22.812,-5.5,-27.75,0.003,0.031,0.756,1000,1000
10,2,2023,19,42,14,586,20,-0.34,0.508,9.641,0.039,-0.023,0,0,0,0,22.812,-5.5,-27.75,0.003,0.031,0.756,1000,1000
10,2,2023,19,42,14,606,20,-0.34,0.508,9.641,0.039,-0.023,0,0,0,0,22.812,-5.5,-27.75,0.003,0.031,0.756,1000,1000
10,2,2023,19,42,14,626,20,-0.34,0.508,9.641,0.039,-0.023,0,0,0,0,22.812,-5.5,-27.75,0.003,0.031,0.756,1000,1000
10,2,2023,19,42,14,646,20,-0.34,0.508,9.641,0.039,-0.023,0,0,0,0,23.625,-4,-28.188,0.003,0.031,0.756,1000,1000
10,2,2023,19,42,14,666,20,-0.34,0.508,9.641,0.039,-0.023,0,0,0,0,23.625,-4,-28.188,0.003,0.031,0.756,1000,1000
10,2,2023,19,42,15,686,20,-0.34,0.508,9.641,0.039,-0.023,0,0,0,0,23.438,-5.75,-28.188,0.003,0.031,0.756,1000,1000
10,2,2023,19,42,15,706,20,-0.34,0.508,9.641,0.039,-0.023,0,0,0,0,23.438,-5.75,-28.188,0.003,0.031,0.756,1000,1000
10,2,2023,19,42,15,726,20,-0.34,0.508,9.641,0.004,-0.016,0,0,0,0,23.438,-5.75,-28.188,0.003,0.031,0.756,1000,1000
10,2,2023,19,42,15,746,20,-0.34,0.508,9.641,0.004,-0.016,0,0,0,0,23.438,-5.75,-28.188,0.003,0.031,0.756,1000,1000
10,2,2023,19,42,15,766,20,-0.34,0.508,9.641,0.004,-0.016,0,0,0,0,23.438,-5.75,-28.188,0.003,0.031,0.756,1000,1000
10,2,2023,19,42,15,786,20,-0.34,0.508,9.641,0.004,0.023,0.039,0,0,0,23.438,-5.75,-28.188,0.003,0.031,0.756,1000,1000
10,2,2023,19,42,15,806,20,-0.34,0.508,9.641,0.004,0.023,0.039,0,0,0,24.625,-4.188,-27.188,0.003,0.031,0.756,1000,1000
10,2,2023,19,42,15,826,20,-0.34,0.508,9.641,0.004,0.023,0,0,0,0,24.625,-4.188,-27.188,0.003,0.031,0.756,1000,1000
10,2,2023,19,42,15,846,20,-0.34,0.508,9.641,0.004,0.023,0,0,0,0,24.625,-4.188,-27.188,0.003,0.031,0.756,1000,1000
10,2,2023,19,42,15,866,20,-0.34,0.508,9.641,0.004,0.023,0,0,0,0,24.25,-4.5,-27.688,0.003,0.031,0.756,1000,1000
10,2,2023,19,42,15,886,20,-0.34,0.508,9.641,0.004,0.023,0,0,0,0,24.25,-4.5,-27.688,0.003,0.031,0.756,1000,1000
10,2,2023,19,42,15,906,20,-0.34,0.508,9.641,-0.035,0.023,0,0,0,0,24.25,-4.5,-27.688,0.003,0.031,0.756,1000,1000
10,2,2023,19,42,15,926,20,-0.34,0.508,9.641,-0.035,0.023,0,0,0,0,24.25,-4.5,-27.688,0.003,0.031,0.756,1000,1000
10,2,2023,19,42,15,946,20,-0.34,0.508,9.641,-0.027,-0.016,0,0,0,0,24.25,-4.5,-27.688,0.003,0.031,0.756,1000,1000
10,2,2023,19,42,15,966,20,-0.34,0.508,9.641,0.012,-0.008,0,0,0,0,24.25,-4.5,-27.688,0.003,0.031,0.756,1000,1000
10,2,2023,19,42,15,986,20,-0.34,0.508,9.641,0.012,-0.008,0,0,0,0,23.125,-5.188,-28.75,0.003,0.031,0.756,1000,1000
10,2,2023,19,42,15,6,20,-0.34,0.508,9.641,-0.027,-0.008,-0.008,0,0,0,23.125,-5.188,-28.75,0.003,0.031,0.756,1000,1000
10,2,2023,19,42,15,26,20,-0.34,0.508,9.641,-0.027,-0.008,-0.008,0,0,0,23.812,-4.812,-29.688,0.003,0.031,0.756,1000,1000
10,2,2023,19,42,15,46,20,-0.34,0.508,9.641,-0.027,-0.008,-0.008,0,0,0,23.812,-4.812,-29.688,0.003,0.031,0.756,1000,1000
10,2,2023,19,42,15,66,20,-0.34,0.508,9.641,0.012,-0.008,-0.008,0,0,0,23.812,-4.812,-29.688,0.003,0.031,0.756,1000,1000
10,2,2023,19,42,15,86,20,-0.34,0.508,9.641,0.012,-0.008,-0.008,0,0,0,23.812,-4.812,-29.688,0.003,0.031,0.756,1000,1000
10,2,2023,19,42,15,106,20,-0.34,0.508,9.641,-0.027,0.031,-0.008,0,0,0,23.812,-4.812,-29.688,0.003,0.031,0.756,1000,1000
10,2,2023,19,42,15,126,20,-0.34,0.508,9.641,0.012,0.031,-0.008,0,0,0,23.812,-4.812,-29.688,0.003,0.031,0.756,1000,1000
10,2,2023,19,42,15,146,20,-0.34,0.508,9.641,0.047,-0.008,-0.008,0,0,0,23.812,-4.812,-29.688,0.003,0.031,0.756,1000,1000
10,2,2023,19,42,15,166,20,-0.34,0.508,9.641,0.047,-0.008,-0.008,0,0,0,24.5,-4.812,-28.188,0.003,0.031,0.756,1000,1000
10,2,2023,19,42,15,186,20,-0.34,0.508,9.641,0.047,-0.008,-0.008,0,0,0,24.5,-4.812,-28.188,0.003,0.031,0.756,1000,1000
10,2,2023,19,42,15,206,20,-0.34,0.508,9.641,0.047,-0.008,-0.008,0,0,0,24.188,-4.812,-28.188,0.003,0.031,0.756,1000,1000
10,2,2023,19,42,15,226,20,-0.34,0.508,9.641,0.004,-0.008,-0.008,0,0,0,24.188,-4.812,-28.188,0.003,0.031,0.756,1000,1000
10,2,2023,19,42,15,246,20,-0.34,0.508,9.641,0.004,-0.008,0.031,0,0,0,24.188,-4.812,-28.188,0.003,0.031,0.756,1000,1000
10,2,2023,19,42,15,266,20,-0.34,0.508,9.641,0.004,-0.008,-0.008,0,0,0,24.188,-4.812,-28.188,0.003,0.031,0.756,1000,1000
10,2,2023,19,42,15,286,20,-0.34,0.508,9.641,0.004,0.031,-0.008,0,0,0,24.188,-4.812,-28.188,0.003,0.031,0.756,1000,1000
10,2,2023,19,42,15,306,20,-0.34,0.508,9.641,0.004,0.031,-0.008,0,0,0,23.5,-4.875,-28.75,0.003,0.031,0.756,1000,1000
10,2,2023,19,42,15,326,20,-0.34,0.508,9.641,0.039,0.031,-0.008,0,0,0,23.5,-4.875,-28.75,0.003,0.031,0.756,1000,1000
10,2,2023,19,42,15,346,20,-0.34,0.508,9.641,0.039,0.031,-0.008,0,0,0,23.438,-5.75,-28.75,0.003,0.031,0.756,1000,1000
10,2,2023,19,42,15,366,20,-0.34,0.508,9.641,0.004,0.031,-0.008,0,0,0,23.438,-5.75,-28.75,0.003,0.031,0.756,1000,1000
10,2,2023,19,42,15,386,20,-0.34,0.508,9.641,0.004,-0.008,-0.008,0,0,0,23.438,-5.75,-28.75,0.003,0.031,0.756,1000,1000
10,2,2023,19,42,15,406,20,-0.34,0.508,9.641,0.004,0.031,-0.008,0,0,0,23.438,-5.75,-28.75,0.003,0.031,0.756,1000,1000
10,2,2023,19,42,15,426,20,-0.34,0.508,9.641,0.004,0.023,-0.008,0,0,0,23.438,-5.75,-28.75,0.003,0.031,0.756,1000,1000
10,2,2023,19,42,15,446,20,-0.34,0.508,9.641,0.004,0.023,-0.008,0,0,0,23.875,-5.125,-28.25,0.003,0.031,0.756,1000,1000
10,2,2023,19,42,15,466,20,-0.34,0.508,9.641,0.004,-0.016,-0.008,0,0,0,23.875,-5.125,-28.25,0.003,0.031,0.756,1000,1000
10,2,2023,19,42,15,486,20,-0.34,0.508,9.641,0.004,-0.016,-0.008,0,0,0,23.5,-4.562,-30.188,0.003,0.031,0.756,1000,1000
10,2,2023,19,42,15,506,20,-0.34,0.508,9.641,0.004,-0.016,-0.008,0,0,0,23.5,-4.562,-30.188,0.003,0.031,0.756,1000,1000
10,2,2023,19,42,15,526,20,-0.34,0.508,9.641,0.004,-0.016,-0.008,0,0,0,23.938,-4.562,-27.75,0.003,0.031,0.756,1000,1000
10,2,2023,19,42,15,546,20,-0.34,0.508,9.641,0.004,-0.016,-0.008,0,0,0,23.938,-4.562,-27.75,0.003,0.031,0.756,1000,1000
10,2,2023,19,42,15,566,20,-0.34,0.508,9.641,0.004,-0.016,-0.008,0,0,0,23.938,-4.562,-27.75,0.003,0.031,0.756,1000,1000
10,2,2023,19,42,15,586,20,-0.34,0.508,9.641,0.004,-0.016,-0.008,0,0,0,24.188,-4.5,-28.25,0.003,0.031,0.756,1000,1000
10,2,2023,19,42,15,606,20,-0.34,0.508,9.641,0.004,-0.016,0.023,0,0,0,24.188,-4.5,-28.25,0.003,0.031,0.756,1000,1000
10,2,2023,19,42,15,626,20,-0.34,0.508,9.641,0.004,-0.016,0.023,0,0,0,23.438,-5.125,-29.188,0.003,0.031,0.756,1000,1000
10,2,2023,19,42,15,646,20,-0.34,0.508,9.641,0.004,-0.016,-0.016,0,0,0,23.438,-5.125,-29.188,0.003,0.031,0.756,1000,1000
10,2,2023,19,42,16,666,20,-0.34,0.508,9.641,0.004,-0.016,-0.016,0,0,0,23.25,-4.625,-28.312,0.003,0.031,0.756,1000,1000
10,2,2023,19,42,16,686,20,-0.34,0.508,9.641,0.004,0.031,-0.016,0,0,0,23.25,-4.625,-28.312,0.003,0.031,0.756,1000,1000
10,2,2023,19,42,16,706,20,-0.34,0.508,9.641,0.004,-0.008,-0.016,0,0,0,23.25,-4.625,-28.312,0.003,0.031,0.756,1000,1000
10,2,2023,19,42,16,726,20,-0.34,0.508,9.641,0.004,-0.008,-0.016,0,0,0,23.438,-5.438,-29.188,0.003,0.031,0.756,1000,1000
10,2,2023,19,42,16,746,20,-0.34,0.508,9.641,0.004,-0.016,0.031,0,0,0,23.438,-5.438,-29.188,0.003,0.031,0.756,1000,1000
10,2,2023,19,42,16,766,20,-0.34,0.508,9.641,0.004,-0.016,0.031,0,0,0,23.625,-4.25,-28.25,0.003,0.031,0.756,1000,1000
10,2,2023,19,42,16,786,20,-0.34,0.508,9.641,0.004,-0.016,-0.008,0,0,0,23.625,-4.25,-28.25,0.003,0.031,0.756,1000,1000
10,2,2023,19,42,16,806,20,-0.34,0.508,9.641,0.004,-0.016,-0.008,0,0,0,24,-6.312,-28.188,0.003,0.031,0.756,1000,1000
10,2,2023,19,42,16,826,20,-0.34,0.508,9.641,0.004,-0.016,-0.008,0,0,0,24,-6.312,-28.188,0.003,0.031,0.756,1000,1000
10,2,2023,19,42,16,846,20,-0.34,0.508,9.641,0.004,-0.016,-0.008,0,0,0,23.75,-5.062,-30.25,0.003,0.031,0.756,1000,1000
10,2,2023,19,42,16,866,20,-0.34,0.508,9.641,0.004,-0.016,0.031,0,0,0,23.75,-5.062,-30.25,0.003,0.031,0.756,1000,1000
10,2,2023,19,42,16,886,20,-0.34,0.508,9.641,0.004,-0.016,0.031,0,0,0,23.75,-5.062,-30.25,0.003,0.031,0.756,1000,1000
10,2,2023,19,42,16,906,20,-0.34,0.508,9.641,0.004,-0.016,0.031,0,0,0,24.188,-4.188,-29.75,0.003,0.031,0.756,1000,1000
10,2,2023,19,42,16,926,20,-0.34,0.508,9.641,0.004,-0.016,-0.008,0,0,0,24.188,-4.188,-29.75,0.003,0.031,0.756,1000,1000
10,2,2023,19,42,16,946,20,-0.34,0.508,9.641,0.004,0.023,-0.008,0,0,0,24.188,-4.188,-29.75,0.003,0.031,0.756,1000,1000
10,2,2023,19,42,16,966,20,-0.34,0.508,9.641,0.004,0.023,-0.008,0,0,0,24.188,-4.188,-29.75,0.003,0.031,0.756,1000,1000
10,2,2023,19,42,16,986,20,-0.34,0.508,9.641,0.004,0.023,-0.008,0,0,0,23.75,-5.375,-30.188,0.003,0.031,0.756,1000,1000
10,2,2023,19,42,16,6,20,-0.34,0.508,9.641,0.039,0.023,-0.008,0,0,0,23.75,-5.375,-30.188,0.003,0.031,0.756,1000,1000
10,2,2023,19,42,16,26,20,-0.34,0.508,9.641,0.039,0.023,-0.008,0,0,0,23.75,-5.688,-29.25,0.003,0.031,0.756,1000,1000
10,2,2023,19,42,16,46,20,-0.34,0.508,9.641,0.039,0.023,-0.008,0,0,0,23.75,-5.375,-29.75,0.003,0.031,0.756,1000,1000
10,2,2023,19,42,16,66,20,-0.34,0.508,9.641,0.039,0.023,-0.008,0,0,0,23.75,-5.375,-29.75,0.003,0.031,0.756,1000,1000
10,2,2023,19,42,16,86,20,-0.34,0.508,9.641,0.039,0.023,-0.008,0,0,0,23.25,-4.312,-28.312,0.003,0.031,0.756,1000,1000
10,2,2023,19,42,16,106,20,-0.34,0.508,9.641,0.004,-0.016,0.031,0,0,0,23.25,-4.312,-28.312,0.003,0.031,0.756,1000,1000
10,2,2023,19,42,16,126,20,-0.34,0.508,9.641,0.004,-0.016,0.031,0,0,0,23.375,-6.062,-28.812,0.003,0.031,0.756,1000,1000
10,2,2023,19,42,16,146,20,-0.34,0.508,9.641,0.004,-0.016,0.031,0,0,0,23.375,-6.062,-28.812,0.003,0.031,0.756,1000,1000
10,2,2023,19,42,16,166,20,-0.34,0.508,9.641,0.004,-0.016,0.031,0,0,0,22.688,-5.812,-30.312,0.003,0.031,0.756,1000,1000
10,2,2023,19,42,16,186,20,-0.34,0.508,9.641,0.004,-0.016,-0.008,0,0,0,22.688,-5.812,-30.312,0.003,0.031,0.756,1000,1000
10,2,2023,19,42,16,206,20,-0.34,0.508,9.641,0.004,-0.016,0.031,0,0,0,22.688,-5.812,-30.312,0.003,0.031,0.756,1000,1000
10,2,2023,19,42,16,226,20,-0.34,0.508,9.641,0.004,-0.016,-0.008,0,0,0,22.688,-5.812,-30.312,0.003,0.031,0.756,1000,1000
10,2,2023,19,42,16,246,20,-0.34,0.508,9.641,0.004,-0.016,-0.008,0,0,0,22.688,-5.812,-30.312,0.003,0.031,0.756,1000,1000
10,2,2023,19,42,16,266,20,-0.34,0.508,9.641,-0.035,0.023,-0.008,0,0,0,22.688,-5.812,-30.312,0.003,0.031,0.756,1000,1000
10,2,2023,19,42,16,286,20,-0.34,0.508,9.641,-0.035,0.023,-0.008,0,0,0,22.688,-5.812,-30.312,0.003,0.031,0.756,1000,1000
10,2,2023,19,42,16,306,20,-0.34,0.508,9.641,-0.035,0.023,-0.008,0,0,0,23.438,-5.438,-29.312,0.003,0.031,0.756,1000,1000
10,2,2023,19,42,16,326,20,-0.34,0.508,9.641,0.004,-0.016,-0.008,0,0,0,23.438,-5.438,-29.312,0.003,0.031,0.756,1000,1000
10,2,2023,19,42,16,346,20,-0.34,0.508,9.641,0.004,-0.016,-0.008,0,0,0,23.875,-3.312,-31.25,0.003,0.031,0.756,1000,1000
10,2,2023,19,42,16,366,20,-0.34,0.508,9.641,0.004,0.023,-0.047,0,0,0,23.875,-3.312,-31.25,0.003,0.031,0.756,1000,1000
10,2,2023,19,42,16,386,20,-0.34,0.508,9.641,0.004,0.023,0,0,0,0,23.875,-3.312,-31.25,0.003,0.031,0.756,1000,1000
10,2,2023,19,42,16,406,20,-0.34,0.508,9.641,-0.035,-0.016,0,0,0,0,23.875,-3.312,-31.25,0.003,0.031,0.756,1000,1000
10,2,2023,19,42,16,426,20,-0.34,0.508,9.641,0.004,-0.016,0,0,0,0,23.875,-3.312,-31.25,0.003,0.031,0.756,1000,1000
10,2,2023,19,42,16,446,20,-0.34,0.508,9.641,0.004,-0.016,0,0,0,0,21.938,-5.812,-30.875,0.003,0.031,0.756,1000,1000
10,2,2023,19,42,16,466,20,-0.34,0.508,9.641,0.004,-0.016,0,0,0,0,21.938,-5.812,-30.875,0.003,0.031,0.756,1000,1000
10,2,2023,19,42,16,486,20,-0.34,0.508,9.641,0.004,-0.016,0,0,0,0,23.438,-5.188,-30.25,0.003,0.031,0.756,1000,1000
10,2,2023,19,42,16,506,20,-0.34,0.508,9.641,0.004,-0.016,0,0,0,0,23,-6.062,-29.75,0.003,0.031,0.756,1000,1000
10,2,2023,19,42,16,526,20,-0.34,0.508,9.641,0.004,-0.016,0,0,0,0,23,-6.062,-29.75,0.003,0.031,0.756,1000,1000
10,2,2023,19,42,16,546,20,-0.34,0.508,9.641,0.004,-0.016,0,0,0,0,23.625,-3.375,-29.812,0.003,0.031,0.756,1000,1000
10,2,2023,19,42,16,566,20,-0.34,0.508,9.641,0.039,-0.016,0,0,0,0,23.625,-3.375,-29.812,0.003,0.031,0.756,1000,1000
10,2,2023,19,42,16,586,20,-0.34,0.508,9.641,0.004,0.023,0,0,0,0,23.625,-3.375,-29.812,0.003,0.031,0.756,1000,1000
10,2,2023,19,42,16,606,20,-0.34,0.508,9.641,0.004,0.023,0,0,0,0,23.625,-3.375,-29.812,0.003,0.031,0.756,1000,1000
10,2,2023,19,42,16,626,20,-0.34,0.508,9.641,0.004,0.023,0,0,0,0,23.312,-5.688,-31.25,0.003,0.031,0.756,1000,1000
10,2,2023,19,42,16,646,20,-0.34,0.508,9.641,0.004,0.023,-0.008,0,0,0,23.312,-5.688,-31.25,0.003,0.031,0.756,1000,1000
10,2,2023,19,42,17,666,20,-0.34,0.508,9.641,0.004,0.023,-0.008,0,0,0,24.125,-4.5,-30.188,0.003,0.031,0.756,1000,1000
10,2,2023,19,42,17,686,20,-0.34,0.508,9.641,0.004,0.016,-0.008,0,0,0,24.125,-4.5,-30.188,0.003,0.031,0.756,1000,1000
10,2,2023,19,42,17,706,20,-0.34,0.508,9.641,0.004,-0.023,-0.008,0,0,0,24.125,-4.5,-30.188,0.003,0.031,0.756,1000,1000
10,2,2023,19,42,17,726,20,-0.34,0.508,9.641,0.004,-0.023,-0.008,0,0,0,23.875,-4.562,-28.812,0.003,0.031,0.756,1000,1000
10,2,2023,19,42,17,746,20,-0.34,0.508,9.641,0.004,-0.023,0.031,0,0,0,23.875,-4.562,-28.812,0.003,0.031,0.756,1000,1000
10,2,2023,19,42,17,766,20,-0.34,0.508,9.641,0.004,-0.023,0.031,0,0,0,23.438,-4.562,-30.812,0.003,0.031,0.756,1000,1000
10,2,2023,19,42,17,786,20,-0.34,0.508,9.641,0.004,-0.023,0.031,0,0,0,23,-5.188,-31.75,0.003,0.031,0.756,1000,1000
10,2,2023,19,42,17,806,20,-0.34,0.508,9.641,0.004,-0.023,0.031,0,0,0,23.312,-5.438,-31.25,0.003,0.031,0.756,1000,1000
10,2,2023,19,42,17,826,20,-0.34,0.508,9.641,0.004,-0.023,0.031,0,0,0,22.75,-4.625,-30.875,0.003,0.031,0.756,1000,1000
10,2,2023,19,42,17,846,20,-0.34,0.508,9.641,0.004,-0.023,0.031,0,0,0,23.25,-6,-31.25,0.003,0.031,0.756,1000,1000
10,2,2023,19,42,17,866,20,-0.34,0.508,9.641,0.004,-0.023,0.031,0,0,0,23.188,-5.5,-26.875,0.003,0.031,0.756,1000,1000
10,2,2023,19,42,17,886,20,-0.34,0.508,9.641,0.004,-0.023,-0.008,0,0,0,23.188,-5.5,-26.875,0.003,0.031,0.756,1000,1000
10,2,2023,19,42,17,906,20,-0.34,0.508,9.641,0.039,-0.023,0.031,0,0,0,23.188,-5.5,-26.875,0.003,0.031,0.756,1000,1000
10,2,2023,19,42,17,926,20,-0.34,0.508,9.641,0.039,-0.023,0.031,0,0,0,23.188,-5.5,-26.875,0.003,0.031,0.756,1000,1000
10,2,2023,19,42,17,946,20,-0.34,0.508,9.641,0.039,-0.023,0.031,0,0,0,23.562,-6.312,-31.25,0.003,0.031,0.756,1000,1000
10,2,2023,19,42,17,966,20,-0.34,0.508,9.641,0.039,-0.023,0.031,0,0,0,24,-5.125,-31.25,0.003,0.031,0.756,1000,1000
10,2,2023,19,42,17,986,20,-0.34,0.508,9.641,0.039,-0.023,0.031,0,0,0,23.5,-4.562,-29.75,0.003,0.031,0.756,1000,1000
10,2,2023,19,42,17,6,20,-0.34,0.508,9.641,0.039,-0.023,0.031,0,0,0,23.938,-4.562,-28.312,0.003,0.031,0.756,1000,1000
10,2,2023,19,42,17,26,20,-0.34,0.508,9.641,0.004,-0.016,-0.008,0,0,0,23.938,-4.562,-28.312,0.003,0.031,0.756,1000,1000
10,2,2023,19,42,17,46,20,-0.34,0.508,9.641,-0.035,-0.016,-0.008,0,0,0,23.938,-4.562,-28.312,0.003,0.031,0.756,1000,1000
10,2,2023,19,42,17,66,20,-0.34,0.508,9.641,0.004,0.023,-0.008,0,0,0,23.938,-4.562,-28.312,0.003,0.031,0.756,1000,1000
10,2,2023,19,42,17,86,20,-0.34,0.469,9.641,0.004,0.023,-0.008,0,0,0,23.938,-4.562,-28.312,0.003,0.031,0.756,1000,1000
10,2,2023,19,42,17,106,20,-0.34,0.469,9.641,0.004,0.023,-0.008,0,0,0,23.062,-4.562,-31.812,0.003,0.031,0.756,1000,1000
10,2,2023,19,42,17,126,20,-0.34,0.469,9.641,0.004,0.023,-0.008,0,0,0,23.312,-5.125,-31.75,0.003,0.031,0.756,1000,1000
10,2,2023,19,42,17,146,20,-0.34,0.469,9.641,0.004,0.023,-0.008,0,0,0,22.625,-5.5,-31.312,0.003,0.031,0.756,1000,1000
10,2,2023,19,42,17,166,20,-0.34,0.469,9.641,0.004,0.023,-0.008,0,0,0,24.062,-4.5,-31.25,0.003,0.031,0.756,1000,1000
10,2,2023,19,42,17,186,20,-0.34,0.469,9.641,0.004,0.023,-0.008,0,0,0,23.438,-4.875,-30.812,0.003,0.031,0.756,1000,1000
10,2,2023,19,42,17,206,20,-0.34,0.469,9.641,0.004,0.023,0.031,0,0,0,23.438,-4.875,-30.812,0.003,0.031,0.756,1000,1000
10,2,2023,19,42,17,226,20,-0.34,0.469,9.641,0.004,0.023,0.031,0,0,0,23.5,-3.938,-31.312,0.003,0.031,0.756,1000,1000
10,2,2023,19,42,17,246,20,-0.34,0.469,9.641,0.004,-0.016,0.031,0,0,0,23.5,-3.938,-31.312,0.003,0.031,0.756,1000,1000
10,2,2023,19,42,17,266,20,-0.34,0.469,9.641,0.004,-0.016,0.031,0,0,0,23.125,-3.688,-32.25,0.003,0.031,0.756,1000,1000
10,2,2023,19,42,17,286,20,-0.34,0.469,9.641,0.004,-0.016,0.031,0,0,0,23.938,-3.625,-30.312,0.003,0.031,0.756,1000,1000
10,2,2023,19,42,17,306,20,-0.34,0.469,9.641,0.004,-0.016,0.031,0,0,0,23.938,-3.625,-30.312,0.003,0.031,0.756,1000,1000
10,2,2023,19,42,17,326,20,-0.34,0.469,9.641,0.004,-0.016,0.031,0,0,0,22.562,-5.438,-32.812,0.003,0.031,0.756,1000,1000
10,2,2023,19,42,17,346,20,-0.34,0.469,9.641,0.004,-0.016,-0.016,0,0,0,22.562,-5.438,-32.812,0.003,0.031,0.756,1000,1000
10,2,2023,19,42,17,366,20,-0.34,0.469,9.641,0.004,-0.016,-0.016,0,0,0,23.688,-4,-27.375,0.003,0.031,0.756,1000,1000
10,2,2023,19,42,17,386,20,-0.34,0.469,9.641,0.004,-0.016,-0.016,0,0,0,23.688,-4,-27.375,0.003,0.031,0.756,1000,1000
10,2,2023,19,42,17,406,20,-0.34,0.469,9.641,0.004,-0.016,-0.016,0,0,0,23.75,-5.125,-30.75,0.003,0.031,0.756,1000,1000
10,2,2023,19,42,17,426,20,-0.34,0.469,9.641,0.004,-0.016,-0.016,0,0,0,23.5,-4.25,-30.812,0.003,0.031,0.756,1000,1000
10,2,2023,19,42,17,446,20,-0.34,0.469,9.641,0.004,-0.016,-0.016,0,0,0,23.5,-4.25,-30.812,0.003,0.031,0.756,1000,1000
10,2,2023,19,42,17,466,20,-0.34,0.508,9.605,0.004,-0.016,-0.016,0,0,0,23.5,-4.25,-30.812,0.003,0.031,0.756,1000,1000
10,2,2023,19,42,17,486,20,-0.34,0.508,9.605,0.004,-0.016,-0.016,0,0,0,22.75,-4.938,-29.875,0.003,0.031,0.756,1000,1000
10,2,2023,19,42,17,506,20,-0.34,0.508,9.605,0.004,-0.008,-0.016,0,0,0,22.75,-4.938,-29.875,0.003,0.031,0.756,1000,1000
10,2,2023,19,42,17,526,20,-0.34,0.469,9.641,0.004,-0.008,-0.016,0,0,0,22.75,-4.938,-29.875,0.003,0.031,0.756,1000,1000
10,2,2023,19,42,17,546,20,-0.34,0.469,9.641,0.004,-0.008,-0.016,0,0,0,22,-5.875,-29.938,0.003,0.031,0.756,1000,1000
10,2,2023,19,42,17,566,20,-0.34,0.469,9.641,0.004,0.031,-0.008,0,0,0,22,-5.875,-29.938,0.003,0.031,0.756,1000,1000
10,2,2023,19,42,17,586,20,-0.34,0.469,9.641,0.004,0.031,-0.008,0,0,0,23.5,-6.562,-31.688,0.003,0.031,0.756,1000,1000
10,2,2023,19,42,17,606,20,-0.34,0.469,9.641,0.004,0.031,-0.008,0,0,0,23.5,-6.562,-31.688,0.003,0.031,0.756,1000,1000
10,2,2023,19,42,17,626,20,-0.34,0.469,9.641,0.004,0.031,-0.008,0,0,0,23.5,-6.562,-31.688,0.003,0.031,0.756,1000,1000
10,2,2023,19,42,17,646,20,-0.34,0.469,9.641,0.004,0.031,-0.008,0,0,0,22.938,-6.375,-30.812,0.003,0.031,0.756,1000,1000
10,2,2023,19,42,18,666,20,-0.34,0.469,9.641,0.004,0.031,-0.008,0,0,0,24,-4.5,-32.25,0.003,0.031,0.756,1000,1000
10,2,2023,19,42,18,686,20,-0.34,0.469,9.641,0.004,-0.008,0.023,0,0,0,24,-4.5,-32.25,0.003,0.031,0.756,1000,1000
10,2,2023,19,42,18,706,20,-0.34,0.469,9.641,0.004,-0.008,0.023,0,0,0,24,-4.5,-32.25,0.003,0.031,0.756,1000,1000
10,2,2023,19,42,18,726,20,-0.34,0.469,9.641,0.004,-0.008,0.023,0,0,0,24,-4.5,-32.25,0.003,0.031,0.756,1000,1000
10,2,2023,19,42,18,746,20,-0.34,0.469,9.641,0.004,-0.008,0.023,0,0,0,24.062,-5.125,-29.812,0.003,0.031,0.756,1000,1000
10,2,2023,19,42,18,766,20,-0.34,0.469,9.641,0.004,-0.008,0.023,0,0,0,24.062,-5.125,-29.812,0.003,0.031,0.756,1000,1000
10,2,2023,19,42,18,786,20,-0.34,0.469,9.641,0.004,-0.008,0.023,0,0,0,24.062,-5.125,-29.812,0.003,0.031,0.756,1000,1000
10,2,2023,19,42,18,806,20,-0.34,0.469,9.641,0.004,-0.008,0.023,0,0,0,24.062,-5.125,-29.812,0.003,0.031,0.756,1000,1000
10,2,2023,19,42,18,826,20,-0.34,0.469,9.641,0.004,-0.008,0.023,0,0,0,23.438,-3.938,-31.75,0.003,0.031,0.756,1000,1000
10,2,2023,19,42,18,846,20,-0.34,0.469,9.641,0.004,-0.008,0.023,0,0,0,23.438,-3.938,-31.75,0.003,0.031,0.756,1000,1000
10,2,2023,19,42,18,866,20,-0.34,0.469,9.641,0.004,-0.008,0.023,0,0,0,23.438,-3.938,-31.75,0.003,0.031,0.756,1000,1000
10,2,2023,19,42,18,886,20,-0.34,0.469,9.641,0.004,-0.008,0.023,0,0,0,23.438,-3.938,-31.75,0.003,0.031,0.756,1000,1000
10,2,2023,19,42,18,906,20,-0.34,0.469,9.641,0.004,-0.008,0.023,0,0,0,23.438,-3.938,-31.75,0.003,0.031,0.756,1000,1000
10,2,2023,19,42,18,926,20,-0.34,0.469,9.641,0.004,-0.008,0.023,0,0,0,23.438,-3.938,-31.75,0.003,0.03,0.756,1000,1000
10,2,2023,19,42,18,946,20,-0.34,0.469,9.641,0.004,-0.008,0.023,0,0,0,23.438,-3.938,-31.75,0.003,0.03,0.756,1000,1000
10,2,2023,19,42,18,966,20,-0.34,0.469,9.641,0.004,-0.008,0.023,0,0,0,23.438,-3.938,-31.75,0.003,0.03,0.756,1000,1000
10,2,2023,19,42,18,986,20,-0.34,0.469,9.641,0.004,-0.008,0.023,0,0,0,22.938,-5.438,-31.875,0.003,0.03,0.756,1000,1000
10,2,2023,19,42,18,6,20,-0.34,0.469,9.641,0.004,-0.008,0.023,0,0,0,22.938,-5.438,-31.875,0.003,0.03,0.756,1000,1000
10,2,2023,19,42,18,26,20,-0.34,0.469,9.641,0.004,-0.008,0.023,0,0,0,23.188,-4.938,-27.875,0.003,0.03,0.756,1000,1000
10,2,2023,19,42,18,46,20,-0.305,0.469,9.684,0.004,-0.008,0.023,0,0,0,23.188,-4.938,-27.875,0.003,0.03,0.756,1000,1000
10,2,2023,19,42,18,66,20,-0.305,0.469,9.684,0.004,-0.008,0.023,0,0,0,23.188,-4.938,-27.875,0.003,0.03,0.756,1000,1000
10,2,2023,19,42,18,86,20,-0.305,0.469,9.684,0.004,-0.008,0.023,0,0,0,23.188,-4.938,-27.875,0.003,0.03,0.756,1000,1000
10,2,2023,19,42,18,106,20,-0.305,0.469,9.684,0.004,-0.008,0.023,0,0,0,23.188,-4.938,-27.875,0.003,0.03,0.756,1000,1000
10,2,2023,19,42,18,126,20,-0.34,0.508,9.641,0.004,-0.008,0.023,0,0,0,23.188,-4.938,-27.875,0.003,0.03,0.756,1000,1000
10,2,2023,19,42,18,146,20,-0.34,0.508,9.641,0.004,-0.008,0.023,0,0,0,23.188,-4.938,-27.875,0.003,0.03,0.756,1000,1000
10,2,2023,19,42,18,166,20,-0.34,0.469,9.641,0.004,-0.008,0.023,0,0,0,23.188,-4.938,-27.875,0.003,0.03,0.756,1000,1000
10,2,2023,19,42,18,186,20,-0.34,0.469,9.641,0.004,-0.008,0.023,0,0,0,23.188,-4.938,-27.875,0.003,0.03,0.756,1000,1000
10,2,2023,19,42,18,206,20,-0.34,0.469,9.68,0.004,-0.008,0.023,0,0,0,23.188,-4.938,-27.875,0.003,0.03,0.756,1000,1000
10,2,2023,19,42,18,226,20,-0.34,0.469,9.68,0.004,-0.008,0.023,0,0,0,23.188,-4.938,-27.875,0.003,0.03,0.756,1000,1000
10,2,2023,19,42,18,246,20,-0.34,0.469,9.68,0.004,-0.008,0.023,0,0,0,23.188,-4.938,-27.875,0.003,0.03,0.756,1000,1000
10,2,2023,19,42,18,266,20,-0.34,0.469,9.68,0.004,-0.008,0.023,0,0,0,23.188,-4.938,-27.875,0.003,0.03,0.756,1000,1000
10,2,2023,19,42,18,286,20,-0.34,0.469,9.68,0.004,-0.008,0.023,0,0,0,23.188,-4.938,-27.875,0.003,0.03,0.756,1000,1000
10,2,2023,19,42,18,306,20,-0.34,0.469,9.641,0.004,-0.008,0.023,0,0,0,23.188,-4.938,-27.875,0.003,0.03,0.756,1000,1000
10,2,2023,19,42,18,326,20,-0.34,0.469,9.641,0.004,-0.008,0.023,0,0,0,23.188,-4.938,-27.875,0.003,0.03,0.756,1000,1000
10,2,2023,19,42,18,346,20,-0.34,0.469,9.641,0.004,-0.008,0.023,0,0,0,23.438,-5.188,-29.375,0.003,0.03,0.756,1000,1000
10,2,2023,19,42,18,366,20,-0.34,0.469,9.641,0.004,0.031,-0.016,0,0,0,23.438,-5.188,-29.375,0.003,0.03,0.756,1000,1000
10,2,2023,19,42,18,386,20,-0.34,0.469,9.641,0.039,-0.008,0.023,0,0,0,23.438,-5.188,-29.375,0.003,0.03,0.756,1000,1000
10,2,2023,19,42,18,406,20,-0.34,0.469,9.641,0.039,-0.008,0.023,0,0,0,23.438,-5.188,-29.375,0.003,0.03,0.756,1000,1000
10,2,2023,19,42,18,426,20,-0.34,0.469,9.641,0.039,0.023,-0.016,0,0,0,23.438,-5.188,-29.375,0.003,0.03,0.756,1000,1000
10,2,2023,19,42,18,446,20,-0.34,0.469,9.641,0.039,0.023,-0.016,0,0,0,23.438,-5.188,-29.375,0.003,0.03,0.756,1000,1000
10,2,2023,19,42,18,466,20,-0.34,0.469,9.641,0.004,-0.016,0.023,0,0,0,23.438,-5.188,-29.375,0.003,0.03,0.756,1000,1000
10,2,2023,19,42,18,486,20,-0.34,0.469,9.641,0.039,-0.016,-0.016,0,0,0,23.438,-5.188,-29.375,0.003,0.03,0.756,1000,1000
10,2,2023,19,42,18,506,20,-0.34,0.469,9.641,0.039,-0.016,-0.016,0,0,0,23.562,-4.562,-28.375,0.003,0.03,0.756,1000,1000
10,2,2023,19,42,18,526,20,-0.34,0.469,9.641,-0.004,-0.016,0.023,0,0,0,23.562,-4.562,-28.375,0.003,0.03,0.756,1000,1000
10,2,2023,19,42,18,546,20,-0.34,0.469,9.641,-0.004,-0.016,0.023,0,0,0,23.562,-4.562,-28.375,0.003,0.03,0.756,1000,1000
10,2,2023,19,42,18,566,20,-0.34,0.469,9.641,-0.004,-0.016,0.023,0,0,0,23.562,-4.562,-28.375,0.003,0.03,0.756,1000,1000
10,2,2023,19,42,18,586,20,-0.34,0.469,9.641,-0.004,-0.016,-0.016,0,0,0,23.562,-4.562,-28.375,0.003,0.03,0.756,1000,1000
10,2,2023,19,42,18,606,20,-0.34,0.469,9.641,-0.004,0.023,-0.016,0,0,0,23.562,-4.562,-28.375,0.003,0.03,0.756,1000,1000
10,2,2023,19,42,18,626,20,-0.34,0.469,9.641,-0.004,0.023,-0.016,0,0,0,23.562,-4.562,-28.375,0.003,0.03,0.756,1000,1000
10,2,2023,19,42,18,646,20,-0.34,0.469,9.641,-0.004,-0.016,0.023,0,0,0,23.562,-4.562,-28.375,0.003,0.03,0.756,1000,1000
10,2,2023,19,42,19,666,20,-0.34,0.469,9.641,-0.004,-0.016,0.023,0,0,0,23.562,-4.562,-28.375,0.003,0.03,0.756,1000,1000
10,2,2023,19,42,19,686,20,-0.34,0.469,9.641,-0.004,-0.016,0.023,0,0,0,23.188,-4.625,-29.375,0.003,0.03,0.756,1000,1000
10,2,2023,19,42,19,706,20,-0.34,0.469,9.641,-0.004,-0.016,0.023,0,0,0,23.188,-4.625,-29.375,0.003,0.03,0.756,1000,1000
10,2,2023,19,42,19,726,20,-0.34,0.469,9.641,-0.043,-0.016,0.023,0,0,0,23.188,-4.625,-29.375,0.003,0.03,0.756,1000,1000
10,2,2023,19,42,19,746,20,-0.34,0.469,9.641,-0.004,0.023,-0.016,0,0,0,23.188,-4.625,-29.375,0.003,0.03,0.756,1000,1000
10,2,2023,19,42,19,766,20,-0.34,0.469,9.641,-0.004,-0.016,-0.016,0,0,0,23.188,-4.625,-29.375,0.003,0.03,0.756,1000,1000
10,2,2023,19,42,19,786,20,-0.34,0.469,9.641,-0.004,0.023,0.023,0,0,0,23.188,-4.625,-29.375,0.003,0.03,0.756,1000,1000
10,2,2023,19,42,19,806,20,-0.34,0.469,9.641,-0.004,0.023,0.023,0,0,0,23.188,-4.625,-29.375,0.003,0.03,0.756,1000,1000
10,2,2023,19,42,19,826,20,-0.34,0.469,9.641,-0.004,0.023,-0.016,0,0,0,23.188,-4.625,-29.375,0.003,0.03,0.756,1000,1000
10,2,2023,19,42,19,846,20,-0.34,0.469,9.641,-0.004,-0.016,-0.016,0,0,0,23.188,-4.625,-29.375,0.003,0.03,0.756,1000,1000
10,2,2023,19,42,19,866,20,-0.34,0.469,9.641,-0.004,0.023,-0.016,0,0,0,23.188,-4.625,-29.375,0.003,0.03,0.756,1000,1000
10,2,2023,19,42,19,886,20,-0.34,0.469,9.641,-0.035,-0.016,-0.016,0,0,0,23.188,-4.625,-29.375,0.003,0.03,0.756,1000,1000
10,2,2023,19,42,19,906,20,-0.34,0.469,9.641,0.004,-0.016,-0.016,0,0,0,23.188,-4.625,-29.375,0.003,0.03,0.756,1000,1000
10,2,2023,19,42,19,926,20,-0.34,0.469,9.641,0.004,-0.016,-0.016,0,0,0,23.188,-4.625,-29.375,0.003,0.03,0.756,1000,1000
10,2,2023,19,42,19,946,20,-0.34,0.469,9.641,0.004,0.023,-0.016,0,0,0,23.188,-4.625,-29.375,0.003,0.03,0.756,1000,1000
10,2,2023,19,42,19,966,20,-0.34,0.469,9.641,0.004,0.023,-0.016,0,0,0,22.688,-6.125,-28.938,0.003,0.03,0.756,1000,1000
10,2,2023,19,42,19,986,20,-0.34,0.469,9.641,0.004,0.023,-0.016,0,0,0,22.688,-6.125,-28.938,0.003,0.03,0.756,1000,1000
10,2,2023,19,42,19,6,20,-0.34,0.469,9.641,0.004,0.023,-0.016,0,0,0,23.062,-4.062,-26.5,0.003,0.03,0.756,1000,1000
10,2,2023,19,42,19,26,20,-0.34,0.469,9.641,0.039,0.023,-0.016,0,0,0,23.062,-4.062,-26.5,0.003,0.03,0.756,1000,1000
10,2,2023,19,42,19,46,20,-0.34,0.469,9.641,0.004,0.023,-0.016,0,0,0,23.062,-4.062,-26.5,0.003,0.03,0.756,1000,1000
10,2,2023,19,42,19,66,20,-0.34,0.469,9.641,0.004,0.023,-0.016,0,0,0,23.062,-4.062,-26.5,0.003,0.03,0.756,1000,1000
10,2,2023,19,42,19,86,20,-0.34,0.469,9.641,0.004,-0.016,0.023,0,0,0,23.062,-4.062,-26.5,0.003,0.03,0.756,1000,1000
10,2,2023,19,42,19,106,20,-0.34,0.469,9.641,0.004,0.023,0.023,0,0,0,23.062,-4.062,-26.5,0.003,0.03,0.756,1000,1000
10,2,2023,19,42,19,126,20,-0.34,0.469,9.641,0.004,-0.016,-0.016,0,0,0,23.062,-4.062,-26.5,0.003,0.03,0.756,1000,1000
10,2,2023,19,42,19,146,20,-0.34,0.469,9.641,0.004,-0.016,-0.016,0,0,0,23.562,-4.875,-27.938,0.003,0.03,0.756,1000,1000
10,2,2023,19,42,19,166,20,-0.34,0.469,9.641,0.004,-0.016,-0.016,0,0,0,23.562,-4.875,-27.938,0.003,0.03,0.756,1000,1000
10,2,2023,19,42,19,186,20,-0.34,0.469,9.641,0.004,0.023,-0.016,0,0,0,23.562,-4.875,-27.938,0.003,0.03,0.756,1000,1000
10,2,2023,19,42,19,206,20,-0.34,0.469,9.641,0.004,-0.016,0.023,0,0,0,23.562,-4.875,-27.938,0.003,0.03,0.756,1000,1000
10,2,2023,19,42,19,226,20,-0.34,0.469,9.641,-0.035,-0.016,-0.016,0,0,0,23.562,-4.875,-27.938,0.003,0.03,0.756,1000,1000
10,2,2023,19,42,19,246,20,-0.34,0.469,9.641,0.004,-0.016,-0.016,0,0,0,23.562,-4.875,-27.938,0.003,0.03,0.756,1000,1000
10,2,2023,19,42,19,266,20,-0.34,0.469,9.641,0.004,-0.016,0.023,0,0,0,23.562,-4.875,-27.938,0.003,0.03,0.756,1000,1000
10,2,2023,19,42,19,286,20,-0.34,0.469,9.641,0.004,-0.016,0.023,0,0,0,22.938,-4.625,-27.5,0.003,0.03,0.756,1000,1000
10,2,2023,19,42,19,306,20,-0.34,0.469,9.641,0.004,-0.016,0.023,0,0,0,22.938,-4.625,-27.5,0.003,0.03,0.756,1000,1000
10,2,2023,19,42,19,326,20,-0.34,0.469,9.641,0.004,-0.016,0.023,0,0,0,23.062,-6.062,-27.938,0.003,0.03,0.756,1000,1000
10,2,2023,19,42,19,346,20,-0.34,0.469,9.641,0.004,0.023,0.023,0,0,0,23.062,-6.062,-27.938,0.003,0.03,0.756,1000,1000
10,2,2023,19,42,19,366,20,-0.34,0.469,9.641,0.004,-0.016,-0.016,0,0,0,23.062,-6.062,-27.938,0.003,0.03,0.756,1000,1000
10,2,2023,19,42,19,386,20,-0.34,0.469,9.641,0.004,0.023,0.023,0,0,0,23.062,-6.062,-27.938,0.003,0.03,0.756,1000,1000
10,2,2023,19,42,19,406,20,-0.34,0.469,9.641,0.004,0.023,-0.016,0,0,0,23.062,-6.062,-27.938,0.003,0.03,0.756,1000,1000
10,2,2023,19,42,19,426,20,-0.34,0.469,9.641,0.004,0.023,-0.016,0,0,0,22.812,-4.938,-28.938,0.003,0.03,0.756,1000,1000
10,2,2023,19,42,19,446,20,-0.34,0.469,9.641,0.004,-0.016,-0.016,0,0,0,22.812,-4.938,-28.938,0.003,0.03,0.756,1000,1000
10,2,2023,19,42,19,466,20,-0.34,0.469,9.641,0.004,-0.016,-0.016,0,0,0,23.438,-5.5,-29.375,0.003,0.03,0.756,1000,1000
10,2,2023,19,42,19,486,20,-0.34,0.469,9.641,0.004,-0.016,-0.016,0,0,0,23.125,-5.188,-28.438,0.003,0.03,0.756,1000,1000
10,2,2023,19,42,19,506,20,-0.34,0.469,9.641,-0.004,0.023,0.023,0,0,0,23.125,-5.188,-28.438,0.003,0.03,0.756,1000,1000
10,2,2023,19,42,19,526,20,-0.34,0.469,9.641,-0.004,-0.016,0.023,0,0,0,23.125,-5.188,-28.438,0.003,0.03,0.756,1000,1000
10,2,2023,19,42,19,546,20,-0.34,0.469,9.641,-0.004,-0.016,0.023,0,0,0,23.125,-5.188,-28.438,0.003,0.03,0.756,1000,1000
10,2,2023,19,42,19,566,20,-0.34,0.469,9.641,-0.004,-0.016,0.023,0,0,0,23.5,-5.75,-27.438,0.003,0.03,0.756,1000,1000
10,2,2023,19,42,19,586,20,-0.34,0.469,9.641,-0.004,0.023,-0.016,0,0,0,23.5,-5.75,-27.438,0.003,0.03,0.756,1000,1000
10,2,2023,19,42,19,606,20,-0.34,0.469,9.641,-0.004,0.023,-0.016,0,0,0,24.438,-5.375,-28.312,0.003,0.03,0.756,1000,1000
10,2,2023,19,42,19,626,20,-0.34,0.469,9.641,-0.004,0.023,-0.016,0,0,0,24.438,-5.375,-28.312,0.003,0.03,0.756,1000,1000
10,2,2023,19,42,19,646,20,-0.34,0.469,9.641,-0.004,0.023,-0.016,0,0,0,23.562,-4.875,-27.938,0.003,0.03,0.756,1000,1000
10,2,2023,19,42,20,666,20,-0.34,0.469,9.641,-0.004,0.023,0.023,0,0,0,23.562,-4.875,-27.938,0.003,0.03,0.756,1000,1000
10,2,2023,19,42,20,686,20,-0.34,0.469,9.641,-0.004,-0.016,-0.016,0,0,0,23.562,-4.875,-27.938,0.003,0.03,0.756,1000,1000
10,2,2023,19,42,20,706,20,-0.34,0.469,9.641,-0.004,0.023,-0.016,0,0,0,23.562,-4.875,-27.938,0.003,0.03,0.756,1000,1000
10,2,2023,19,42,20,726,20,-0.34,0.469,9.641,-0.004,-0.016,-0.016,0,0,0,23.562,-4.875,-27.938,0.003,0.03,0.756,1000,1000
10,2,2023,19,42,20,746,20,-0.34,0.469,9.641,-0.004,-0.016,-0.016,0,0,0,23.812,-5.125,-28.875,0.003,0.03,0.756,1000,1000
10,2,2023,19,42,20,766,20,-0.34,0.469,9.641,-0.004,-0.016,-0.016,0,0,0,23.812,-5.125,-28.875,0.003,0.03,0.756,1000,1000
10,2,2023,19,42,20,786,20,-0.34,0.469,9.641,-0.004,-0.016,-0.016,0,0,0,23,-3.188,-28.5,0.003,0.03,0.756,1000,1000
10,2,2023,19,42,20,806,20,-0.34,0.469,9.641,-0.004,-0.016,-0.016,0,0,0,23,-3.188,-28.5,0.003,0.03,0.756,1000,1000
10,2,2023,19,42,20,826,20,-0.34,0.469,9.641,0.004,-0.016,-0.016,0,0,0,23,-3.188,-28.5,0.003,0.03,0.756,1000,1000
10,2,2023,19,42,20,846,20,-0.34,0.469,9.641,0.039,-0.016,-0.016,0,0,0,23,-3.188,-28.5,0.003,0.03,0.756,1000,1000
10,2,2023,19,42,20,866,20,-0.34,0.469,9.641,-0.035,0.023,0.023,0,0,0,23,-3.188,-28.5,0.003,0.03,0.756,1000,1000
10,2,2023,19,42,20,886,20,-0.34,0.469,9.641,-0.035,0.023,0.023,0,0,0,23.562,-4.562,-28.438,0.003,0.03,0.756,1000,1000
10,2,2023,19,42,20,906,20,-0.34,0.469,9.641,0.004,0.023,-0.008,0,0,0,23.562,-4.562,-28.438,0.003,0.03,0.756,1000,1000
10,2,2023,19,42,20,926,20,-0.34,0.469,9.641,0.004,0.023,-0.008,0,0,0,22.562,-3.5,-30,0.003,0.03,0.756,1000,1000
10,2,2023,19,42,20,946,20,-0.34,0.469,9.641,0.004,0.023,-0.008,0,0,0,22.562,-3.5,-30,0.003,0.03,0.756,1000,1000
10,2,2023,19,42,20,966,20,-0.34,0.469,9.641,0.004,0.023,-0.008,0,0,0,22.75,-5.562,-28.938,0.003,0.03,0.756,1000,1000
10,2,2023,19,42,20,986,20,-0.34,0.469,9.641,0.004,0.023,-0.008,0,0,0,22.75,-5.562,-28.938,0.003,0.03,0.756,1000,1000
10,2,2023,19,42,20,6,20,-0.34,0.469,9.641,0.039,-0.016,-0.008,0,0,0,22.75,-5.562,-28.938,0.003,0.03,0.756,1000,1000
10,2,2023,19,42,20,26,20,-0.34,0.469,9.641,0.039,-0.016,-0.008,0,0,0,23.75,-5.688,-29.438,0.003,0.03,0.756,1000,1000
10,2,2023,19,42,20,46,20,-0.34,0.469,9.641,0.031,-0.016,0.031,0,0,0,23.75,-5.688,-29.438,0.003,0.03,0.756,1000,1000
10,2,2023,19,42,20,66,20,-0.34,0.469,9.641,0.031,-0.016,0.031,0,0,0,23.188,-4.625,-28.938,0.003,0.03,0.756,1000,1000
10,2,2023,19,42,20,86,20,-0.34,0.469,9.641,-0.004,-0.055,-0.008,0,0,0,23.188,-4.625,-28.938,0.003,0.03,0.756,1000,1000
10,2,2023,19,42,20,106,20,-0.34,0.469,9.641,-0.004,-0.055,-0.008,0,0,0,23.062,-4.562,-31.375,0.003,0.03,0.756,1000,1000
10,2,2023,19,42,20,126,20,-0.34,0.469,9.641,-0.004,-0.016,0.031,0,0,0,23.062,-4.562,-31.375,0.003,0.03,0.756,1000,1000
10,2,2023,19,42,20,146,20,-0.34,0.469,9.641,-0.004,-0.016,0.031,0,0,0,23.375,-5.438,-30.375,0.003,0.03,0.756,1000,1000
10,2,2023,19,42,20,166,20,-0.34,0.469,9.641,-0.004,-0.016,-0.008,0,0,0,23.375,-5.438,-30.375,0.003,0.03,0.756,1000,1000
10,2,2023,19,42,20,186,20,-0.34,0.469,9.641,-0.004,0.023,-0.008,0,0,0,23.375,-5.438,-30.375,0.003,0.03,0.756,1000,1000
10,2,2023,19,42,20,206,20,-0.34,0.469,9.641,-0.004,0.023,-0.008,0,0,0,23.312,-6.312,-29.938,0.003,0.03,0.756,1000,1000
10,2,2023,19,42,20,226,20,-0.34,0.469,9.641,-0.004,0.023,-0.008,0,0,0,23.312,-6.312,-29.938,0.003,0.03,0.756,1000,1000
10,2,2023,19,42,20,246,20,-0.34,0.469,9.641,-0.004,0.023,-0.008,0,0,0,22.5,-4.062,-30.5,0.003,0.03,0.756,1000,1000
10,2,2023,19,42,20,266,20,-0.34,0.469,9.641,-0.004,0.023,-0.008,0,0,0,22.5,-4.062,-30.5,0.003,0.03,0.756,1000,1000
10,2,2023,19,42,20,286,20,-0.34,0.469,9.641,-0.004,0.023,-0.008,0,0,0,23.125,-4.312,-30.438,0.003,0.03,0.756,1000,1000
10,2,2023,19,42,20,306,20,-0.34,0.469,9.641,-0.004,-0.016,-0.008,0,0,0,23.125,-4.312,-30.438,0.003,0.03,0.756,1000,1000
10,2,2023,19,42,20,326,20,-0.34,0.469,9.641,-0.004,-0.016,0.031,0,0,0,23.125,-4.312,-30.438,0.003,0.03,0.756,1000,1000
10,2,2023,19,42,20,346,20,-0.34,0.469,9.641,-0.004,-0.016,0.031,0,0,0,23.125,-5.5,-28.438,0.003,0.03,0.756,1000,1000
10,2,2023,19,42,20,366,20,-0.34,0.469,9.641,0.031,-0.016,-0.008,0,0,0,23.125,-5.5,-28.438,0.003,0.03,0.756,1000,1000
10,2,2023,19,42,20,386,20,-0.34,0.469,9.641,0.031,-0.016,-0.008,0,0,0,22.688,-5.25,-30.938,0.003,0.03,0.756,1000,1000
10,2,2023,19,42,20,406,20,-0.34,0.469,9.641,-0.004,-0.016,0.031,0,0,0,22.688,-5.25,-30.938,0.003,0.03,0.756,1000,1000
10,2,2023,19,42,20,426,20,-0.34,0.469,9.641,-0.004,-0.016,0.031,0,0,0,23,-5.5,-30.875,0.003,0.03,0.756,1000,1000
10,2,2023,19,42,20,446,20,-0.34,0.469,9.641,0.031,-0.016,-0.008,0,0,0,23,-5.5,-30.875,0.003,0.03,0.756,1000,1000
10,2,2023,19,42,20,466,20,-0.34,0.469,9.641,0.031,-0.016,-0.008,0,0,0,23.25,-3.688,-29.5,0.003,0.03,0.756,1000,1000
10,2,2023,19,42,20,486,20,-0.34,0.469,9.641,0.031,-0.016,-0.008,0,0,0,23.25,-3.688,-29.5,0.003,0.03,0.756,1000,1000
10,2,2023,19,42,20,506,20,-0.34,0.469,9.641,-0.004,0.023,-0.008,0,0,0,23.25,-3.688,-29.5,0.003,0.03,0.756,1000,1000
10,2,2023,19,42,20,526,20,-0.34,0.469,9.641,-0.004,0.023,-0.008,0,0,0,22.938,-3.75,-28.938,0.003,0.03,0.756,1000,1000
10,2,2023,19,42,20,546,20,-0.34,0.469,9.641,-0.004,-0.016,-0.008,0,0,0,22.938,-3.75,-28.938,0.003,0.03,0.756,1000,1000
10,2,2023,19,42,20,566,20,-0.34,0.469,9.641,-0.004,-0.016,-0.008,0,0,0,23.438,-4.562,-30.438,0.003,0.03,0.756,1000,1000
10,2,2023,19,42,20,586,20,-0.34,0.469,9.641,-0.004,-0.016,-0.008,0,0,0,23,-5.5,-30.875,0.003,0.03,0.756,1000,1000
10,2,2023,19,42,20,606,20,-0.34,0.469,9.641,-0.004,-0.016,-0.008,0,0,0,22.625,-5.5,-31.938,0.003,0.03,0.756,1000,1000
10,2,2023,19,42,20,626,20,-0.34,0.469,9.641,-0.004,-0.016,0.031,0,0,0,22.625,-5.5,-31.938,0.003,0.03,0.756,1000,1000
10,2,2023,19,42,20,646,20,-0.34,0.469,9.641,0.031,-0.016,-0.008,0,0,0,22.625,-5.5,-31.938,0.003,0.03,0.756,1000,1000
10,2,2023,19,42,21,666,20,-0.305,0.508,9.645,0.031,-0.016,-0.008,0,0,0,22.625,-5.5,-31.938,0.003,0.03,0.756,1000,1000
10,2,2023,19,42,21,686,20,-0.305,0.508,9.645,-0.004,-0.016,-0.016,0,0,0,22.625,-5.5,-31.938,0.003,0.03,0.756,1000,1000
10,2,2023,19,42,21,706,20,-0.305,0.508,9.645,-0.004,0.023,-0.008,0,0,0,22.625,-5.5,-31.938,0.003,0.03,0.756,1000,1000
10,2,2023,19,42,21,726,20,-0.305,0.508,9.645,-0.004,0.023,-0.008,0,0,0,22.625,-5.5,-31.938,0.003,0.03,0.756,1000,1000
10,2,2023,19,42,21,746,20,-0.305,0.508,9.645,-0.004,0.023,-0.008,0,0,0,22.688,-5.25,-31.375,0.003,0.03,0.756,1000,1000
10,2,2023,19,42,21,766,20,-0.305,0.508,9.645,-0.004,-0.016,0.023,0,0,0,22.688,-5.25,-31.375,0.003,0.03,0.756,1000,1000
10,2,2023,19,42,21,786,20,-0.305,0.508,9.645,-0.004,-0.016,0.023,0,0,0,23.312,-5.438,-30.875,0.003,0.03,0.756,1000,1000
10,2,2023,19,42,21,806,20,-0.305,0.508,9.645,-0.004,-0.016,0.023,0,0,0,23.312,-5.438,-30.875,0.003,0.03,0.756,1000,1000
10,2,2023,19,42,21,826,20,-0.305,0.508,9.645,-0.004,-0.016,-0.016,0,0,0,23.312,-5.438,-30.875,0.003,0.03,0.756,1000,1000
10,2,2023,19,42,21,846,20,-0.305,0.508,9.645,-0.004,-0.016,-0.016,0,0,0,23.312,-5.438,-30.875,0.003,0.03,0.756,1000,1000
10,2,2023,19,42,21,866,20,-0.305,0.508,9.645,-0.004,-0.016,-0.016,0,0,0,23.312,-5.438,-30.875,0.003,0.03,0.756,1000,1000
10,2,2023,19,42,21,886,20,-0.305,0.508,9.645,-0.004,-0.016,-0.016,0,0,0,23.312,-5.438,-30.875,0.003,0.03,0.756,1000,1000
10,2,2023,19,42,21,906,20,-0.305,0.508,9.645,-0.004,-0.016,-0.016,0,0,0,23.312,-5.438,-30.875,0.003,0.03,0.756,1000,1000
10,2,2023,19,42,21,926,20,-0.305,0.508,9.645,-0.004,-0.016,-0.016,0,0,0,23.312,-5.438,-31.938,0.003,0.03,0.756,1000,1000
10,2,2023,19,42,21,946,20,-0.305,0.508,9.645,-0.004,-0.016,-0.016,0,0,0,22.688,-4.938,-31.938,0.003,0.03,0.756,1000,1000
10,2,2023,19,42,21,966,20,-0.305,0.508,9.645,-0.004,-0.016,-0.016,0,0,0,22.688,-4.938,-31.5,0.003,0.03,0.756,1000,1000
10,2,2023,19,42,21,986,20,-0.305,0.508,9.645,-0.004,-0.008,0.023,0,0,0,22.688,-4.938,-31.5,0.003,0.03,0.756,1000,1000
10,2,2023,19,42,21,6,20,-0.305,0.508,9.645,-0.004,-0.008,0.023,0,0,0,22.688,-4.938,-31.5,0.003,0.03,0.756,1000,1000
10,2,2023,19,42,21,26,20,-0.305,0.508,9.645,-0.004,-0.008,0.023,0,0,0,23.062,-5.75,-29.438,0.003,0.03,0.756,1000,1000
10,2,2023,19,42,21,46,20,-0.305,0.508,9.645,-0.004,-0.016,-0.016,0,0,0,23.062,-5.75,-29.438,0.003,0.03,0.756,1000,1000
10,2,2023,19,42,21,66,20,-0.305,0.508,9.645,-0.004,-0.016,-0.016,0,0,0,22.938,-6.375,-30.875,0.003,0.03,0.756,1000,1000
10,2,2023,19,42,21,86,20,-0.305,0.508,9.645,-0.004,-0.016,-0.016,0,0,0,23.438,-5.188,-29.438,0.003,0.03,0.756,1000,1000
10,2,2023,19,42,21,106,20,-0.305,0.508,9.645,-0.004,-0.016,-0.016,0,0,0,23.312,-5.438,-31.938,0.003,0.03,0.756,1000,1000
10,2,2023,19,42,21,126,20,-0.34,0.469,9.641,-0.004,-0.016,-0.016,0,0,0,23.312,-5.438,-31.938,0.003,0.03,0.756,1000,1000
10,2,2023,19,42,21,146,20,-0.34,0.469,9.641,-0.004,-0.016,0.023,0,0,0,23.312,-5.438,-31.938,0.003,0.03,0.756,1000,1000
10,2,2023,19,42,21,166,20,-0.34,0.469,9.641,-0.004,-0.016,0.023,0,0,0,23.312,-5.438,-31.938,0.003,0.03,0.756,1000,1000
10,2,2023,19,42,21,186,20,-0.34,0.469,9.641,-0.004,-0.016,0.023,0,0,0,23,-5.5,-30.438,0.003,0.03,0.756,1000,1000
10,2,2023,19,42,21,206,20,-0.34,0.469,9.641,-0.004,-0.016,0.023,0,0,0,23,-5.5,-30.438,0.003,0.03,0.756,1000,1000
10,2,2023,19,42,21,226,20,-0.305,0.469,9.684,-0.004,-0.016,0.023,0,0,0,23,-5.5,-30.438,0.003,0.03,0.756,1000,1000
10,2,2023,19,42,21,246,20,-0.305,0.469,9.684,-0.004,-0.016,0.023,0,0,0,23.312,-4.875,-32.375,0.003,0.03,0.756,1000,1000
10,2,2023,19,42,21,266,20,-0.305,0.469,9.684,-0.004,-0.016,0.023,0,0,0,22.688,-4.938,-31.938,0.003,0.03,0.756,1000,1000
10,2,2023,19,42,21,286,20,-0.305,0.469,9.684,-0.004,-0.016,0.023,0,0,0,23.75,-4.5,-31.438,0.003,0.03,0.756,1000,1000
10,2,2023,19,42,21,306,20,-0.305,0.469,9.684,-0.004,-0.016,0.023,0,0,0,22.625,-5.75,-31,0.003,0.03,0.756,1000,1000
10,2,2023,19,42,21,326,20,-0.305,0.469,9.684,-0.004,-0.016,-0.016,0,0,0,22.625,-5.75,-31,0.003,0.03,0.756,1000,1000
10,2,2023,19,42,21,346,20,-0.305,0.469,9.684,-0.004,-0.016,-0.016,0,0,0,23.5,-5.5,-28.438,0.003,0.03,0.756,1000,1000
10,2,2023,19,42,21,366,20,-0.305,0.469,9.684,0.031,-0.016,0.023,0,0,0,23.5,-5.5,-28.438,0.003,0.03,0.756,1000,1000
10,2,2023,19,42,21,386,20,-0.305,0.469,9.684,0.031,-0.016,0.023,0,0,0,23.75,-4.812,-30.875,0.003,0.03,0.756,1000,1000
10,2,2023,19,42,21,406,20,-0.305,0.469,9.684,0.031,-0.016,0.023,0,0,0,23.125,-4.875,-29.5,0.003,0.03,0.756,1000,1000
10,2,2023,19,42,21,426,20,-0.305,0.469,9.684,0.031,-0.016,0.023,0,0,0,22.438,-4.062,-31.5,0.003,0.03,0.756,1000,1000
10,2,2023,19,42,21,446,20,-0.305,0.469,9.684,0.031,-0.016,0.023,0,0,0,22.688,-4.625,-31.5,0.003,0.03,0.756,1000,1000
10,2,2023,19,42,21,466,20,-0.305,0.469,9.684,-0.004,-0.016,-0.016,0,0,0,22.688,-4.625,-31.5,0.003,0.03,0.756,1000,1000
10,2,2023,19,42,21,486,20,-0.305,0.469,9.684,-0.004,-0.016,-0.016,0,0,0,23.625,-4.312,-27.5,0.003,0.03,0.756,1000,1000
10,2,2023,19,42,21,506,20,-0.305,0.469,9.684,-0.004,0.023,-0.016,0,0,0,23.625,-4.312,-27.5,0.003,0.03,0.756,1000,1000
10,2,2023,19,42,21,526,20,-0.305,0.469,9.684,-0.004,0.023,-0.016,0,0,0,23.312,-5.688,-30.938,0.003,0.03,0.756,1000,1000
10,2,2023,19,42,21,546,20,-0.305,0.469,9.684,-0.004,0.023,0.023,0,0,0,23.312,-5.688,-30.938,0.003,0.03,0.756,1000,1000
10,2,2023,19,42,21,566,20,-0.34,0.469,9.68,-0.004,0.023,0.023,0,0,0,23.312,-5.688,-30.938,0.003,0.03,0.756,1000,1000
10,2,2023,19,42,21,586,20,-0.34,0.469,9.68,-0.004,0.023,0.023,0,0,0,23,-5.188,-31.938,0.003,0.03,0.756,1000,1000
10,2,2023,19,42,21,606,20,-0.34,0.469,9.68,-0.004,0.023,0.023,0,0,0,22.375,-4.625,-31.062,0.003,0.03,0.756,1000,1000
10,2,2023,19,42,21,626,20,-0.34,0.469,9.68,-0.004,0.023,0.023,0,0,0,23.375,-4.875,-31.938,0.003,0.03,0.756,1000,1000
10,2,2023,19,42,21,646,20,-0.34,0.469,9.68,-0.004,0.023,0.023,0,0,0,22.312,-5.562,-31,0.003,0.03,0.756,1000,1000
10,2,2023,19,42,21,666,20,-0.34,0.469,9.68,-0.004,0.023,-0.016,0,0,0,22.312,-5.562,-31,0.003,0.03,0.756,1000,1000
10,2,2023,19,42,22,686,20,-0.34,0.469,9.68,-0.004,0.023,-0.016,0,0,0,22.312,-5.562,-31,0.003,0.03,0.756,1000,1000
10,2,2023,19,42,22,706,20,-0.34,0.469,9.68,-0.004,0.023,-0.016,0,0,0,24.312,-5.375,-31.375,0.003,0.03,0.756,1000,1000
10,2,2023,19,42,22,726,20,-0.34,0.469,9.68,-0.004,-0.016,-0.016,0,0,0,24.312,-5.375,-31.375,0.003,0.03,0.756,1000,1000
10,2,2023,19,42,22,746,20,-0.305,0.508,9.684,-0.004,-0.016,-0.016,0,0,0,24.312,-5.375,-31.375,0.003,0.03,0.756,1000,1000
10,2,2023,19,42,22,766,20,-0.305,0.508,9.684,-0.004,-0.016,-0.016,0,0,0,23.625,-5.438,-31.875,0.003,0.03,0.756,1000,1000
10,2,2023,19,42,22,786,20,-0.305,0.508,9.684,0.031,0.031,-0.016,0,0,0,23.625,-5.438,-31.875,0.003,0.03,0.756,1000,1000
10,2,2023,19,42,22,806,20,-0.305,0.508,9.684,0.031,0.031,-0.016,0,0,0,22.562,-4.375,-28,0.003,0.03,0.756,1000,1000
10,2,2023,19,42,22,826,20,-0.379,0.508,9.641,0.031,0.031,-0.016,0,0,0,22.562,-4.375,-28,0.003,0.03,0.756,1000,1000
10,2,2023,19,42,22,846,20,-0.305,0.469,9.645,0.031,0.031,-0.016,0,0,0,22.562,-4.375,-28,0.003,0.03,0.756,1000,1000
10,2,2023,19,42,22,866,20,-0.305,0.469,9.645,-0.004,-0.008,0.023,0,0,0,22.562,-4.375,-28,0.003,0.03,0.756,1000,1000
10,2,2023,19,42,22,886,20,-0.305,0.469,9.645,-0.004,-0.008,0.023,0,0,0,22.562,-4.375,-28,0.003,0.03,0.756,1000,1000
10,2,2023,19,42,22,906,20,-0.305,0.469,9.645,-0.004,-0.008,0.023,0,0,0,22.562,-4.375,-28,0.003,0.03,0.756,1000,1000
10,2,2023,19,42,22,926,20,-0.305,0.469,9.684,-0.004,-0.008,0.023,0,0,0,22.562,-4.375,-28,0.003,0.03,0.756,1000,1000
10,2,2023,19,42,22,946,20,-0.305,0.469,9.684,-0.004,-0.008,0.023,0,0,0,22.562,-4.375,-28,0.003,0.03,0.756,1000,1000
10,2,2023,19,42,22,966,20,-0.34,0.469,9.641,-0.004,-0.008,0.023,0,0,0,22.562,-4.375,-28,0.003,0.03,0.756,1000,1000
10,2,2023,19,42,22,986,20,-0.34,0.469,9.641,-0.004,-0.008,0.023,0,0,0,22.562,-4.375,-28,0.003,0.03,0.756,1000,1000
10,2,2023,19,42,22,6,20,-0.34,0.469,9.641,-0.004,-0.008,0.023,0,0,0,22.562,-4.375,-28,0.003,0.03,0.756,1000,1000
10,2,2023,19,42,22,26,20,-0.34,0.469,9.641,-0.004,-0.008,0.023,0,0,0,22.562,-4.375,-28,0.003,0.03,0.756,1000,1000
10,2,2023,19,42,22,46,20,-0.34,0.469,9.641,-0.004,-0.008,0.023,0,0,0,22.562,-4.375,-28,0.003,0.03,0.756,1000,1000
10,2,2023,19,42,22,66,20,-0.34,0.508,9.641,-0.004,-0.008,0.023,0,0,0,22.562,-4.375,-28,0.003,0.03,0.756,1000,1000
10,2,2023,19,42,22,86,20,-0.34,0.508,9.641,-0.004,-0.008,0.023,0,0,0,22.562,-4.375,-28,0.003,0.03,0.756,1000,1000
10,2,2023,19,42,22,106,20,-0.379,0.508,9.641,-0.004,-0.008,0.023,0,0,0,22.562,-4.375,-28,0.003,0.03,0.756,1000,1000
10,2,2023,19,42,22,126,20,-0.379,0.508,9.641,-0.004,-0.008,0.023,0,0,0,22.562,-4.375,-28,0.003,0.03,0.756,1000,1000
10,2,2023,19,42,22,146,20,-0.379,0.508,9.641,-0.004,-0.008,0.023,0,0,0,22.812,-5.562,-27.5,0.003,0.03,0.756,1000,1000
10,2,2023,19,42,22,166,20,-0.379,0.508,9.641,-0.004,-0.016,0.023,0,0,0,22.812,-5.562,-27.5,0.003,0.03,0.756,1000,1000
10,2,2023,19,42,22,186,20,-0.379,0.508,9.641,-0.004,-0.016,0.023,0,0,0,22.812,-5.562,-27.5,0.003,0.03,0.756,1000,1000
10,2,2023,19,42,22,206,20,-0.34,0.469,9.641,-0.004,-0.016,0.023,0,0,0,22.812,-5.562,-27.5,0.003,0.03,0.756,1000,1000
10,2,2023,19,42,22,226,20,-0.34,0.469,9.641,-0.004,-0.016,0.023,0,0,0,22.812,-5.562,-27.5,0.003,0.03,0.756,1000,1000
10,2,2023,19,42,22,246,20,-0.34,0.469,9.641,-0.004,-0.016,0.023,0,0,0,22.812,-5.562,-27.5,0.003,0.03,0.756,1000,1000
10,2,2023,19,42,22,266,20,-0.34,0.469,9.641,-0.004,-0.016,0.023,0,0,0,22.812,-5.562,-27.5,0.003,0.03,0.756,1000,1000
10,2,2023,19,42,22,286,20,-0.34,0.469,9.641,-0.004,-0.016,0.023,0,0,0,22.812,-5.562,-27.5,0.003,0.03,0.756,1000,1000
10,2,2023,19,42,22,306,20,-0.34,0.469,9.641,-0.004,-0.016,0.023,0,0,0,22.812,-5.562,-27.5,0.003,0.03,0.756,1000,1000
10,2,2023,19,42,22,326,20,-0.34,0.469,9.641,-0.004,-0.016,0.023,0,0,0,22.812,-5.562,-27.5,0.003,0.03,0.756,1000,1000
10,2,2023,19,42,22,346,20,-0.34,0.508,9.641,-0.004,-0.016,0.023,0,0,0,22.812,-5.562,-27.5,0.003,0.03,0.756,1000,1000
10,2,2023,19,42,22,366,20,-0.34,0.508,9.641,-0.004,-0.016,0.023,0,0,0,22.812,-5.562,-27.5,0.003,0.03,0.756,1000,1000
10,2,2023,19,42,22,386,20,-0.34,0.508,9.641,-0.004,-0.016,0.023,0,0,0,22.812,-5.562,-27.5,0.003,0.03,0.756,1000,1000
10,2,2023,19,42,22,406,20,-0.34,0.508,9.641,-0.004,-0.016,0.023,0,0,0,22.812,-5.562,-27.5,0.003,0.03,0.756,1000,1000
10,2,2023,19,42,22,426,20,-0.34,0.508,9.641,0.031,-0.016,-0.016,0,0,0,22.812,-5.562,-27.5,0.003,0.03,0.756,1000,1000
10,2,2023,19,42,22,446,20,-0.34,0.508,9.641,0.031,-0.016,-0.016,0,0,0,22.812,-5.562,-27.5,0.003,0.03,0.756,1000,1000
10,2,2023,19,42,22,466,20,-0.34,0.508,9.641,0.031,-0.016,-0.016,0,0,0,23.688,-3.438,-29,0.003,0.03,0.756,1000,1000
10,2,2023,19,42,22,486,20,-0.34,0.469,9.68,0.031,-0.016,-0.016,0,0,0,23.688,-3.438,-29,0.003,0.03,0.756,1000,1000
10,2,2023,19,42,22,506,20,-0.34,0.469,9.68,0.031,0.023,0.023,0,0,0,23.688,-3.438,-29,0.003,0.03,0.756,1000,1000
10,2,2023,19,42,22,526,20,-0.34,0.469,9.68,0.031,0.023,0.023,0,0,0,23.688,-3.438,-29,0.003,0.03,0.756,1000,1000
10,2,2023,19,42,22,546,20,-0.34,0.469,9.68,0.031,0.023,0.023,0,0,0,23.688,-3.438,-29,0.003,0.03,0.756,1000,1000
10,2,2023,19,42,22,566,20,-0.34,0.469,9.68,0.031,0.023,0.023,0,0,0,23.688,-3.438,-29,0.003,0.03,0.756,1000,1000
10,2,2023,19,42,22,586,20,-0.34,0.469,9.68,-0.012,0.023,0.023,0,0,0,23.688,-3.438,-29,0.003,0.03,0.756,1000,1000
10,2,2023,19,42,22,606,20,-0.34,0.469,9.68,-0.012,-0.016,0.023,0,0,0,23.688,-3.438,-29,0.003,0.03,0.756,1000,1000
10,2,2023,19,42,22,626,20,-0.34,0.469,9.68,-0.012,-0.016,0.023,0,0,0,23.688,-3.438,-29,0.003,0.03,0.756,1000,1000
10,2,2023,19,42,22,646,20,-0.34,0.469,9.68,-0.012,-0.016,0.023,0,0,0,22.812,-4.938,-28.562,0.003,0.03,0.756,1000,1000
10,2,2023,19,42,23,666,20,-0.34,0.469,9.68,-0.004,0.023,-0.016,0,0,0,22.812,-4.938,-28.562,0.003,0.03,0.756,1000,1000
10,2,2023,19,42,23,686,20,-0.34,0.469,9.68,-0.004,-0.016,-0.016,0,0,0,22.812,-4.938,-28.562,0.003,0.03,0.756,1000,1000
10,2,2023,19,42,23,706,20,-0.34,0.469,9.68,-0.004,-0.016,-0.016,0,0,0,22.812,-4.938,-28.562,0.003,0.03,0.756,1000,1000
10,2,2023,19,42,23,726,20,-0.34,0.469,9.68,-0.004,-0.016,-0.016,0,0,0,22.812,-4.938,-28.562,0.003,0.03,0.756,1000,1000
10,2,2023,19,42,23,746,20,-0.34,0.469,9.68,-0.004,-0.016,-0.016,0,0,0,22.812,-4.938,-28.562,0.003,0.03,0.756,1000,1000
10,2,2023,19,42,23,766,20,-0.34,0.469,9.68,-0.004,-0.016,0.023,0,0,0,22.812,-4.938,-28.562,0.003,0.03,0.756,1000,1000
10,2,2023,19,42,23,786,20,-0.34,0.469,9.68,-0.004,-0.016,0.023,0,0,0,22.812,-4.938,-28.562,0.003,0.03,0.756,1000,1000
10,2,2023,19,42,23,806,20,-0.34,0.469,9.68,-0.004,-0.016,0.023,0,0,0,22.812,-4.938,-28.562,0.003,0.03,0.756,1000,1000
10,2,2023,19,42,23,826,20,-0.34,0.469,9.68,-0.004,-0.016,0.023,0,0,0,22.812,-4.938,-28.562,0.003,0.03,0.756,1000,1000
10,2,2023,19,42,23,846,20,-0.34,0.469,9.68,-0.004,-0.016,0.023,0,0,0,22.812,-4.938,-28.562,0.003,0.03,0.756,1000,1000
10,2,2023,19,42,23,866,20,-0.34,0.469,9.68,-0.004,0.031,0.023,0,0,0,22.812,-4.938,-28.562,0.003,0.03,0.756,1000,1000
10,2,2023,19,42,23,886,20,-0.34,0.469,9.68,-0.043,0.023,-0.055,0,0,0,22.812,-4.938,-28.562,0.003,0.03,0.756,1000,1000
10,2,2023,19,42,23,906,20,-0.34,0.469,9.68,-0.043,0.023,-0.055,0,0,0,22.812,-4.938,-28.562,0.003,0.03,0.756,1000,1000
10,2,2023,19,42,23,926,20,-0.34,0.469,9.68,-0.004,-0.016,-0.016,0,0,0,22.812,-4.938,-28.562,0.003,0.03,0.756,1000,1000
10,2,2023,19,42,23,946,20,-0.34,0.469,9.68,-0.004,0.023,-0.016,0,0,0,22.812,-4.938,-28.562,0.003,0.03,0.756,1000,1000
10,2,2023,19,42,23,966,20,-0.34,0.469,9.68,0.004,0.023,-0.016,0,0,0,22.812,-4.938,-28.562,0.003,0.03,0.756,1000,1000
10,2,2023,19,42,23,986,20,-0.34,0.469,9.641,0.004,0.023,-0.016,0,0,0,22.812,-4.938,-28.562,0.003,0.03,0.756,1000,1000
10,2,2023,19,42,23,6,20,-0.34,0.469,9.641,0.004,-0.016,0.031,0,0,0,22.812,-4.938,-28.562,0.003,0.03,0.756,1000,1000
10,2,2023,19,42,23,26,20,-0.34,0.469,9.641,0.004,-0.016,0.023,0,0,0,22.812,-4.938,-28.562,0.003,0.03,0.756,1000,1000
10,2,2023,19,42,23,46,20,-0.34,0.469,9.641,0.004,-0.016,-0.016,0,0,0,22.812,-4.938,-28.562,0.003,0.03,0.756,1000,1000
10,2,2023,19,42,23,66,20,-0.34,0.469,9.641,0.004,-0.008,-0.016,0,0,0,22.812,-4.938,-28.562,0.003,0.03,0.756,1000,1000
10,2,2023,19,42,23,86,20,-0.34,0.469,9.641,0.004,-0.008,-0.016,0,0,0,24.812,-5.062,-28.375,0.003,0.03,0.756,1000,1000
10,2,2023,19,42,23,106,20,-0.34,0.469,9.641,0.039,-0.008,-0.008,0,0,0,24.812,-5.062,-28.375,0.003,0.03,0.756,1000,1000
10,2,2023,19,42,23,126,20,-0.34,0.469,9.641,0.039,-0.008,-0.008,0,0,0,23.5,-5.5,-28,0.003,0.03,0.756,1000,1000
10,2,2023,19,42,23,146,20,-0.34,0.469,9.641,-0.004,-0.008,-0.008,0,0,0,23.5,-5.5,-28,0.003,0.03,0.756,1000,1000
10,2,2023,19,42,23,166,20,-0.34,0.469,9.641,-0.004,0.031,-0.008,0,0,0,23.5,-5.5,-28,0.003,0.03,0.756,1000,1000
10,2,2023,19,42,23,186,20,-0.34,0.469,9.641,-0.004,-0.008,-0.008,0,0,0,23.5,-5.5,-28,0.003,0.03,0.756,1000,1000
10,2,2023,19,42,23,206,20,-0.34,0.469,9.641,-0.004,0.031,0.031,0,0,0,23.5,-5.5,-28,0.003,0.03,0.756,1000,1000
10,2,2023,19,42,23,226,20,-0.34,0.469,9.641,-0.004,0.031,-0.008,0,0,0,23.5,-5.5,-28,0.003,0.03,0.756,1000,1000
10,2,2023,19,42,23,246,20,-0.34,0.469,9.641,-0.004,0.031,-0.016,0,0,0,23.5,-5.5,-28,0.003,0.03,0.756,1000,1000
10,2,2023,19,42,23,266,20,-0.34,0.469,9.641,-0.004,0.031,-0.016,0,0,0,23.125,-4.875,-29.5,0.003,0.03,0.756,1000,1000
10,2,2023,19,42,23,286,20,-0.34,0.469,9.641,-0.004,0.031,-0.016,0,0,0,23.125,-4.875,-29.5,0.003,0.03,0.756,1000,1000
10,2,2023,19,42,23,306,20,-0.34,0.469,9.641,-0.004,0.031,-0.016,0,0,0,24.188,-5.125,-28,0.003,0.03,0.756,1000,1000
10,2,2023,19,42,23,326,20,-0.34,0.469,9.641,-0.004,-0.008,0.023,0,0,0,24.188,-5.125,-28,0.003,0.03,0.756,1000,1000
10,2,2023,19,42,23,346,20,-0.34,0.469,9.641,-0.004,-0.008,-0.016,0,0,0,24.188,-5.125,-28,0.003,0.03,0.756,1000,1000
10,2,2023,19,42,23,366,20,-0.34,0.469,9.641,-0.004,-0.008,-0.016,0,0,0,24.188,-5.125,-28,0.003,0.03,0.756,1000,1000
10,2,2023,19,42,23,386,20,-0.34,0.469,9.641,-0.004,0.031,-0.016,0,0,0,24.188,-5.125,-28,0.003,0.03,0.756,1000,1000
10,2,2023,19,42,23,406,20,-0.34,0.469,9.641,-0.004,0.031,-0.016,0,0,0,22.812,-5.25,-29,0.003,0.03,0.756,1000,1000
10,2,2023,19,42,23,426,20,-0.34,0.469,9.641,-0.004,-0.008,-0.016,0,0,0,22.812,-5.25,-29,0.003,0.03,0.756,1000,1000
10,2,2023,19,42,23,446,20,-0.34,0.469,9.641,-0.004,-0.008,-0.016,0,0,0,23.188,-5.188,-28.062,0.003,0.03,0.756,1000,1000
10,2,2023,19,42,23,466,20,-0.34,0.469,9.641,-0.004,-0.008,-0.016,0,0,0,23.188,-5.188,-28.062,0.003,0.03,0.756,1000,1000
10,2,2023,19,42,23,486,20,-0.34,0.469,9.641,-0.004,-0.016,-0.016,0,0,0,23.188,-5.188,-28.062,0.003,0.03,0.756,1000,1000
10,2,2023,19,42,23,506,20,-0.34,0.469,9.641,0.031,0.023,-0.016,0,0,0,23.188,-5.188,-28.062,0.003,0.03,0.756,1000,1000
10,2,2023,19,42,23,526,20,-0.34,0.469,9.641,0.031,-0.016,0.023,0,0,0,23.188,-5.188,-28.062,0.003,0.03,0.756,1000,1000
10,2,2023,19,42,23,546,20,-0.34,0.469,9.641,-0.004,0.023,-0.008,0,0,0,23.188,-5.188,-28.062,0.003,0.03,0.756,1000,1000
10,2,2023,19,42,23,566,20,-0.34,0.469,9.641,0.031,-0.016,-0.008,0,0,0,23.188,-5.188,-28.062,0.003,0.03,0.756,1000,1000
10,2,2023,19,42,23,586,20,-0.34,0.469,9.641,0.031,-0.016,-0.008,0,0,0,23.75,-5.125,-30,0.003,0.03,0.756,1000,1000
10,2,2023,19,42,23,606,20,-0.34,0.469,9.641,0.031,-0.016,-0.008,0,0,0,23.75,-5.125,-30,0.003,0.03,0.756,1000,1000
10,2,2023,19,42,23,626,20,-0.34,0.469,9.641,0.031,-0.016,-0.008,0,0,0,22.625,-6.375,-29.5,0.003,0.03,0.756,1000,1000
10,2,2023,19,42,23,646,20,-0.34,0.469,9.641,-0.004,-0.016,0.023,0,0,0,22.625,-6.375,-29.5,0.003,0.03,0.756,1000,1000
10,2,2023,19,42,24,666,20,-0.34,0.469,9.641,0.031,-0.016,0.023,0,0,0,22.625,-6.375,-29.5,0.003,0.03,0.756,1000,1000
10,2,2023,19,42,24,686,20,-0.34,0.469,9.641,-0.004,-0.016,0.023,0,0,0,22.625,-6.375,-29.5,0.003,0.03,0.756,1000,1000
10,2,2023,19,42,24,706,20,-0.34,0.469,9.641,-0.004,-0.016,-0.016,0,0,0,22.625,-6.375,-29.5,0.003,0.03,0.756,1000,1000
10,2,2023,19,42,24,726,20,-0.34,0.469,9.641,-0.004,-0.016,-0.016,0,0,0,22.562,-4.062,-28.562,0.003,0.03,0.756,1000,1000
10,2,2023,19,42,24,746,20,-0.34,0.469,9.641,-0.043,-0.016,-0.016,0,0,0,22.562,-4.062,-28.562,0.003,0.03,0.756,1000,1000
10,2,2023,19,42,24,766,20,-0.34,0.469,9.641,-0.043,-0.016,-0.016,0,0,0,23.312,-4.625,-26.562,0.003,0.03,0.756,1000,1000
10,2,2023,19,42,24,786,20,-0.34,0.469,9.641,0.031,-0.016,0.023,0,0,0,23.312,-4.625,-26.562,0.003,0.03,0.756,1000,1000
10,2,2023,19,42,24,806,20,-0.34,0.469,9.641,-0.004,-0.008,0.023,0,0,0,23.312,-4.625,-26.562,0.003,0.03,0.756,1000,1000
10,2,2023,19,42,24,826,20,-0.34,0.469,9.641,-0.004,-0.008,0.023,0,0,0,23.875,-4.875,-28.938,0.003,0.03,0.756,1000,1000
10,2,2023,19,42,24,846,20,-0.34,0.469,9.641,-0.004,-0.008,0.023,0,0,0,23.875,-4.875,-28.938,0.003,0.03,0.756,1000,1000
10,2,2023,19,42,24,866,20,-0.34,0.469,9.641,-0.004,-0.008,0.023,0,0,0,24.125,-5.438,-28,0.003,0.03,0.756,1000,1000
10,2,2023,19,42,24,886,20,-0.34,0.469,9.641,0.031,-0.008,0.023,0,0,0,24.125,-5.438,-28,0.003,0.03,0.756,1000,1000
10,2,2023,19,42,24,906,20,-0.34,0.469,9.641,0.031,-0.008,0.023,0,0,0,23.188,-4.938,-28.5,0.003,0.03,0.756,1000,1000
10,2,2023,19,42,24,926,20,-0.34,0.469,9.641,0.031,-0.008,0.023,0,0,0,23.188,-4.938,-28.5,0.003,0.03,0.756,1000,1000
10,2,2023,19,42,24,946,20,-0.34,0.469,9.641,0.031,-0.008,0.023,0,0,0,23.5,-5.188,-28.5,0.003,0.03,0.756,1000,1000
10,2,2023,19,42,24,966,20,-0.34,0.469,9.641,0.031,-0.008,0.023,0,0,0,22.188,-4.688,-28.125,0.003,0.03,0.756,1000,1000
10,2,2023,19,42,24,986,20,-0.34,0.469,9.641,-0.004,-0.016,-0.023,0,0,0,22.188,-4.688,-28.125,0.003,0.03,0.756,1000,1000
10,2,2023,19,42,24,6,20,-0.34,0.469,9.641,-0.004,-0.016,-0.023,0,0,0,24,-3.938,-28.5,0.003,0.03,0.756,1000,1000
10,2,2023,19,42,24,26,20,-0.34,0.469,9.641,-0.004,0.023,-0.023,0,0,0,24,-3.938,-28.5,0.003,0.03,0.756,1000,1000
10,2,2023,19,42,24,46,20,-0.34,0.469,9.641,-0.004,0.023,-0.023,0,0,0,23.5,-5.188,-28,0.003,0.03,0.756,1000,1000
10,2,2023,19,42,24,66,20,-0.34,0.469,9.641,-0.004,-0.016,0.016,0,0,0,23.5,-5.188,-28,0.003,0.03,0.756,1000,1000
10,2,2023,19,42,24,86,20,-0.34,0.469,9.641,-0.004,-0.016,0.016,0,0,0,22.562,-4.688,-27.625,0.003,0.03,0.756,1000,1000
10,2,2023,19,42,24,106,20,-0.34,0.469,9.641,-0.004,-0.016,0.016,0,0,0,22.562,-4.688,-27.625,0.003,0.03,0.756,1000,1000
10,2,2023,19,42,24,126,20,-0.34,0.469,9.641,-0.004,0.023,-0.023,0,0,0,22.562,-4.688,-27.625,0.003,0.03,0.756,1000,1000
10,2,2023,19,42,24,146,20,-0.34,0.469,9.641,-0.004,0.023,0.016,0,0,0,22.562,-4.688,-27.625,0.003,0.03,0.756,1000,1000
10,2,2023,19,42,24,166,20,-0.34,0.469,9.641,-0.004,-0.016,0.016,0,0,0,22.562,-4.688,-27.625,0.003,0.03,0.756,1000,1000
10,2,2023,19,42,24,186,20,-0.34,0.469,9.641,-0.004,-0.016,0.016,0,0,0,23.25,-3.75,-30.062,0.003,0.03,0.756,1000,1000
10,2,2023,19,42,24,206,20,-0.34,0.469,9.641,-0.004,-0.016,0.016,0,0,0,23.25,-3.75,-30.062,0.003,0.03,0.756,1000,1000
10,2,2023,19,42,24,226,20,-0.34,0.469,9.641,-0.004,-0.016,0.016,0,0,0,23,-6.375,-29,0.003,0.03,0.756,1000,1000
10,2,2023,19,42,24,246,20,-0.34,0.469,9.641,-0.004,-0.016,0.016,0,0,0,23,-6.375,-29,0.003,0.03,0.756,1000,1000
10,2,2023,19,42,24,266,20,-0.34,0.469,9.641,-0.004,-0.016,0.016,0,0,0,22.75,-5.25,-30.062,0.003,0.03,0.756,1000,1000
10,2,2023,19,42,24,286,20,-0.34,0.469,9.641,-0.004,-0.016,0.016,0,0,0,23.438,-5.5,-28.5,0.003,0.03,0.756,1000,1000
10,2,2023,19,42,24,306,20,-0.34,0.469,9.641,0.031,0.023,0.016,0,0,0,23.438,-5.5,-28.5,0.003,0.03,0.756,1000,1000
10,2,2023,19,42,24,326,20,-0.34,0.469,9.641,0.031,0.023,0.016,0,0,0,23.562,-4.875,-27.562,0.003,0.03,0.756,1000,1000
10,2,2023,19,42,24,346,20,-0.34,0.469,9.641,-0.004,0.023,-0.023,0,0,0,23.562,-4.875,-27.562,0.003,0.03,0.756,1000,1000
10,2,2023,19,42,24,366,20,-0.34,0.469,9.641,-0.004,0.023,-0.023,0,0,0,23.562,-4.875,-27.562,0.003,0.03,0.756,1000,1000
10,2,2023,19,42,24,386,20,-0.34,0.469,9.641,-0.004,0.023,-0.023,0,0,0,23.562,-4.875,-27.562,0.003,0.03,0.756,1000,1000
10,2,2023,19,42,24,406,20,-0.34,0.469,9.641,-0.004,0.023,-0.023,0,0,0,22.688,-6.125,-29.562,0.003,0.03,0.756,1000,1000
10,2,2023,19,42,24,426,20,-0.34,0.469,9.641,-0.004,0.023,0.016,0,0,0,22.688,-6.125,-29.562,0.003,0.03,0.756,1000,1000
10,2,2023,19,42,24,446,20,-0.34,0.469,9.641,0.031,-0.055,0.016,0,0,0,22.688,-6.125,-29.562,0.003,0.03,0.756,1000,1000
10,2,2023,19,42,24,466,20,-0.34,0.469,9.68,0.031,-0.055,0.016,0,0,0,22.688,-6.125,-29.562,0.003,0.03,0.756,1000,1000
10,2,2023,19,42,24,486,20,-0.34,0.469,9.68,0.031,-0.055,0.016,0,0,0,22.688,-6.125,-29.562,0.003,0.03,0.756,1000,1000
10,2,2023,19,42,24,506,20,-0.34,0.469,9.68,-0.043,0.023,0.023,0,0,0,22.688,-6.125,-29.562,0.003,0.03,0.756,1000,1000
10,2,2023,19,42,24,526,20,-0.34,0.469,9.68,-0.004,-0.016,0.023,0,0,0,22.688,-6.125,-29.562,0.003,0.03,0.756,1000,1000
10,2,2023,19,42,24,546,20,-0.34,0.469,9.68,-0.004,-0.016,0.023,0,0,0,23.312,-5.75,-30.5,0.003,0.03,0.756,1000,1000
10,2,2023,19,42,24,566,20,-0.34,0.469,9.68,-0.004,-0.016,0.023,0,0,0,23.25,-6.312,-31.5,0.003,0.03,0.756,1000,1000
10,2,2023,19,42,24,586,20,-0.34,0.469,9.68,-0.004,-0.016,0.023,0,0,0,23.5,-4.562,-30,0.003,0.03,0.756,1000,1000
10,2,2023,19,42,24,606,20,-0.34,0.469,9.68,-0.004,-0.055,0.059,0,0,0,23.5,-4.562,-30,0.003,0.03,0.756,1000,1000
10,2,2023,19,42,24,626,20,-0.34,0.469,9.68,0.031,-0.016,0.023,0,0,0,23.5,-4.562,-30,0.003,0.03,0.756,1000,1000
10,2,2023,19,42,24,646,20,-0.34,0.469,9.68,-0.043,-0.094,0.016,0,0,0,23.5,-4.562,-30,0.003,0.03,0.756,1000,1000
10,2,2023,19,42,25,666,20,-0.34,0.469,9.68,-0.004,0.07,0.051,0,0,0,23.5,-4.562,-30,0.003,0.03,0.756,1000,1000
10,2,2023,19,42,25,686,20,-0.266,0.621,9.684,-0.004,0.07,0.051,0,0,0,23.5,-4.562,-30,0.003,0.03,0.756,1000,1000
10,2,2023,19,42,25,706,20,-0.266,0.621,9.684,-0.004,0.07,0.051,0,0,0,23.5,-4.562,-30,0.004,0.03,0.756,1000,1000
10,2,2023,19,42,25,726,20,-0.266,0.621,9.684,-0.004,0.07,0.051,0,0,0,23,-4.875,-31.562,0.004,0.03,0.756,1000,1000
10,2,2023,19,42,25,746,20,-0.266,0.621,9.684,0.023,-0.055,-0.023,0,0,0,23,-4.875,-31.562,0.004,0.03,0.756,1000,1000
10,2,2023,19,42,25,766,20,-0.266,0.621,9.684,-0.012,-0.055,0.016,0,0,0,23,-4.875,-31.562,0.004,0.03,0.756,1000,1000
10,2,2023,19,42,25,786,20,-0.266,0.621,9.684,-0.012,-0.055,0.016,0,0,0,22.938,-3.5,-29.625,0.004,0.03,0.756,1000,1000
10,2,2023,19,42,25,806,20,-0.266,0.621,9.684,-0.012,-0.055,0.016,0,0,0,21.812,-6.75,-31.062,0.004,0.03,0.756,1000,1000
10,2,2023,19,42,25,826,20,-0.266,0.621,9.684,-0.012,-0.055,0.016,0,0,0,22.312,-5.25,-31.062,0.004,0.03,0.756,1000,1000
10,2,2023,19,42,25,846,20,-0.266,0.621,9.684,0.055,-0.008,-0.062,0,0,0,22.312,-5.25,-31.062,0.004,0.03,0.756,1000,1000
10,2,2023,19,42,25,866,20,-0.266,0.621,9.684,0.055,-0.008,-0.062,0,0,0,22.688,-5.25,-30.562,0.004,0.03,0.756,1000,1000
10,2,2023,19,42,25,886,20,-0.266,0.621,9.684,-0.059,0.023,0.023,0,0,0,22.688,-5.25,-30.562,0.004,0.03,0.756,1000,1000
10,2,2023,19,42,25,906,20,-0.266,0.621,9.684,-0.059,0.023,0.023,0,0,0,22.875,-3.438,-30.562,0.004,0.03,0.756,1000,1000
10,2,2023,19,42,25,926,20,-0.266,0.621,9.684,0.016,-0.008,-0.016,0,0,0,22.875,-3.438,-30.562,0.004,0.03,0.756,1000,1000
10,2,2023,19,42,25,946,20,-0.266,0.621,9.684,0.016,0.07,0.023,0,0,0,22.875,-3.438,-30.562,0.004,0.03,0.756,1000,1000
10,2,2023,19,42,25,966,20,-0.266,0.621,9.684,0.016,0.07,0.023,0,0,0,23.562,-4.562,-29.062,0.004,0.03,0.756,1000,1000
10,2,2023,19,42,25,986,20,-0.266,0.621,9.684,0.008,0.031,-0.016,0,0,0,23.562,-4.562,-29.062,0.004,0.03,0.756,1000,1000
10,2,2023,19,42,25,6,20,-0.266,0.621,9.684,0.008,0.031,-0.016,0,0,0,22.312,-5.562,-31.125,0.004,0.03,0.756,1000,1000
10,2,2023,19,42,25,26,20,-0.266,0.621,9.684,0.008,0.031,-0.016,0,0,0,22.312,-5.562,-31.125,0.003,0.029,0.756,1000,1000
10,2,2023,19,42,25,46,20,-0.266,0.621,9.684,0.008,0.031,-0.016,0,0,0,22.625,-6.062,-30.5,0.003,0.029,0.756,1000,1000
10,2,2023,19,42,25,66,20,-0.266,0.621,9.684,0.008,-0.078,-0.016,0,0,0,22.625,-6.062,-30.5,0.003,0.029,0.756,1000,1000
10,2,2023,19,42,25,86,20,-0.266,0.621,9.684,0.008,-0.078,-0.016,0,0,0,24.375,-4.75,-31,0.003,0.029,0.756,1000,1000
10,2,2023,19,42,25,106,20,-0.266,0.621,9.684,0.008,-0.078,-0.016,0,0,0,22.688,-5.5,-30.5,0.003,0.029,0.756,1000,1000
10,2,2023,19,42,25,126,20,-0.266,0.621,9.684,-0.02,0.039,0.023,0,0,0,22.688,-5.5,-30.5,0.003,0.029,0.756,1000,1000
10,2,2023,19,42,25,146,20,-0.266,0.621,9.684,0.016,-0.039,0.023,0,0,0,22.688,-5.5,-30.5,0.003,0.029,0.756,1000,1000
10,2,2023,19,42,25,166,20,-0.266,0.621,9.684,-0.02,0,-0.016,0,0,0,22.688,-5.5,-30.5,0.003,0.029,0.756,1000,1000
10,2,2023,19,42,25,186,20,-0.266,0.621,9.684,-0.02,0,-0.016,0,0,0,23.062,-4.875,-31,0.003,0.029,0.756,1000,1000
10,2,2023,19,42,25,206,20,-0.266,0.621,9.684,-0.02,0,-0.016,0,0,0,23.125,-4.625,-30.062,0.003,0.029,0.756,1000,1000
10,2,2023,19,42,25,226,20,-0.266,0.621,9.684,-0.02,0,-0.016,0,0,0,22.688,-5.5,-30.5,0.003,0.029,0.756,1000,1000
10,2,2023,19,42,25,246,20,-0.266,0.621,9.684,-0.02,0,-0.016,0,0,0,23.812,-5.75,-27.5,0.003,0.029,0.756,1000,1000
10,2,2023,19,42,25,266,20,-0.266,0.621,9.684,0.023,0.008,-0.016,0,0,0,23.812,-5.75,-27.5,0.003,0.029,0.756,1000,1000
10,2,2023,19,42,25,286,20,-0.266,0.621,9.684,0.023,-0.031,0.023,0,0,0,23.812,-5.75,-27.5,0.003,0.029,0.756,1000,1000
10,2,2023,19,42,25,306,20,-0.266,0.621,9.684,0.023,-0.031,0.023,0,0,0,23.812,-5.75,-27.5,0.003,0.03,0.756,1000,1000
10,2,2023,19,42,25,326,20,-0.266,0.621,9.684,-0.043,0,-0.055,0,0,0,23.812,-5.75,-27.5,0.003,0.03,0.756,1000,1000
10,2,2023,19,42,25,346,20,-0.266,0.621,9.684,-0.043,0,-0.055,0,0,0,23.812,-5.75,-27.5,0.003,0.03,0.756,1000,1000
10,2,2023,19,42,25,366,20,-0.266,0.621,9.684,-0.043,0,-0.055,0,0,0,22,-4.375,-32.562,0.003,0.03,0.756,1000,1000
10,2,2023,19,42,25,386,20,-0.266,0.621,9.684,-0.043,0,-0.055,0,0,0,23.562,-3.375,-31,0.003,0.03,0.756,1000,1000
10,2,2023,19,42,25,406,20,-0.266,0.621,9.684,-0.043,0,-0.055,0,0,0,23.375,-5.188,-30.938,0.003,0.03,0.756,1000,1000
10,2,2023,19,42,25,426,20,-0.379,0.469,9.641,-0.043,0,-0.055,0,0,0,23.375,-5.188,-30.938,0.003,0.03,0.756,1000,1000
10,2,2023,19,42,25,446,20,-0.379,0.469,9.641,0.148,-0.078,0.023,0,0,0,23.375,-5.188,-30.938,0.003,0.03,0.756,1000,1000
10,2,2023,19,42,25,466,20,-0.379,0.469,9.641,0.148,-0.078,0.023,0,0,0,24.062,-4.812,-31,0.003,0.03,0.756,1000,1000
10,2,2023,19,42,25,486,20,-0.379,0.469,9.641,0.102,-0.039,0.023,0,0,0,24.062,-4.812,-31,0.003,0.03,0.756,1000,1000
10,2,2023,19,42,25,506,20,-0.379,0.469,9.641,0.102,-0.039,0.023,0,0,0,23.125,-4.312,-30.5,0.003,0.03,0.756,1000,1000
10,2,2023,19,42,25,526,20,0.117,0.125,9.789,0.102,-0.039,0.023,0,0,0,23.125,-4.312,-30.5,0.003,0.03,0.756,1000,1000
10,2,2023,19,42,25,546,20,0.273,0.164,9.75,0.102,-0.039,0.023,0,0,0,23.125,-4.312,-30.5,0.003,0.03,0.756,1000,1000
10,2,2023,19,42,25,566,20,0.273,0.164,9.75,0.34,0.176,-0.031,0,0,0,23.125,-4.312,-30.5,0.003,0.03,0.756,1000,1000
10,2,2023,19,42,25,586,20,0.156,0.621,9.68,0.34,0.176,-0.031,0,0,0,23.125,-4.312,-30.5,0.003,0.03,0.756,1000,1000
10,2,2023,19,42,25,606,20,0.156,0.621,9.68,0.34,0.176,-0.031,0,0,0,23.062,-5.812,-28.562,0.003,0.03,0.756,1000,1000
10,2,2023,19,42,25,626,20,0.156,0.621,9.68,0.66,-0.137,0.008,0,0,0,23.062,-5.812,-28.562,0.003,0.03,0.756,1000,1000
10,2,2023,19,42,25,646,20,0.156,0.621,9.68,0.66,-0.137,0.008,0,0,0,22.812,-3.75,-31.125,0.003,0.03,0.756,1000,1000
10,2,2023,19,42,26,666,20,0.156,0.621,9.68,0.66,-0.137,0.008,0,0,0,24,-5.125,-31,0.003,0.03,0.756,1000,1000
10,2,2023,19,42,26,686,20,0.156,0.621,9.68,0.66,-0.137,0.008,0,0,0,23.625,-5.438,-31.938,0.003,0.03,0.756,1000,1000
10,2,2023,19,42,26,706,20,0.156,0.621,9.68,0.66,-0.137,0.008,0,0,0,23.75,-5.438,-29.5,0.003,0.03,0.756,1000,1000
10,2,2023,19,42,26,726,20,0.156,0.621,9.68,0.895,-0.102,0.082,0,0,0,23.75,-5.438,-29.5,0.003,0.03,0.756,1000,1000
10,2,2023,19,42,26,746,20,0.656,0.43,9.684,0.895,-0.102,0.082,0,0,0,23.75,-5.438,-29.5,0.003,0.03,0.756,1000,1000
10,2,2023,19,42,26,766,20,0.656,0.43,9.684,0.895,-0.102,0.082,0,0,0,23.938,-5.375,-31,0.003,0.03,0.756,1000,1000
10,2,2023,19,42,26,786,20,0.656,0.43,9.684,1.109,0.047,0.121,0,0,0,23.938,-5.375,-31,0.003,0.03,0.756,1000,1000
10,2,2023,19,42,26,806,20,0.883,0.582,9.711,1.109,0.047,0.121,0,0,0,23.938,-5.375,-31,0.003,0.03,0.756,1000,1000
10,2,2023,19,42,26,826,20,0.883,0.582,9.711,1.109,0.047,0.121,0,0,0,23.812,-4.25,-30.5,0.003,0.03,0.756,1000,1000
10,2,2023,19,42,26,846,20,0.883,0.582,9.711,1.109,0.047,0.121,0.008,-0.02,-0.051,23.812,-4.25,-30.5,0.003,0.03,0.756,1000,1000
10,2,2023,19,42,26,866,20,0.922,0.355,9.75,1.109,0.047,0.121,0.008,-0.02,-0.051,23.812,-4.25,-30.5,0.003,0.03,0.756,1000,1000
10,2,2023,19,42,26,886,20,0.922,0.355,9.75,1.109,0.047,0.121,0.008,-0.02,-0.051,23.75,-4.812,-31.5,0.003,0.03,0.756,1000,1000
10,2,2023,19,42,26,906,20,0.922,0.355,9.75,0.344,0,0.16,0.008,-0.02,-0.051,23.75,-4.812,-31.5,0.003,0.03,0.756,1000,1000
10,2,2023,19,42,26,926,20,0.922,0.355,9.75,0.344,0,0.16,0.006,0.045,-0.002,23.75,-4.812,-31.5,0.003,0.03,0.756,1000,1000
10,2,2023,19,42,26,946,20,-1.145,1.352,10.754,0.344,0,0.16,0.006,0.045,-0.002,23.75,-4.812,-31.5,0.003,0.03,0.756,1000,1000
10,2,2023,19,42,26,966,20,-1.145,1.352,10.754,0.344,0,0.16,0.006,0.045,-0.002,25.812,-4.938,-29.375,0.003,0.03,0.756,1000,1000
10,2,2023,19,42,26,986,20,-1.145,1.352,10.754,0.527,-0.406,-0.34,0.006,0.045,-0.002,25.812,-4.938,-29.375,0.003,0.03,0.756,1000,1000
10,2,2023,19,42,26,6,20,-1.145,1.352,10.754,0.527,-0.406,-0.34,0.006,0.045,-0.002,25.25,-3.812,-29.438,0.003,0.03,0.756,1000,1000
10,2,2023,19,42,26,26,20,-1.145,1.352,10.754,0.527,-0.406,-0.34,0.006,0.045,-0.002,25.25,-3.812,-29.438,-0.001,0.032,0.753,1000,1000
10,2,2023,19,42,26,46,20,-0.648,0.086,9.684,0.527,-0.406,-0.34,0.006,0.045,-0.002,25.25,-3.812,-29.438,-0.001,0.032,0.753,1000,1000
10,2,2023,19,42,26,66,20,-0.648,0.086,9.684,0.527,-0.406,-0.34,0.006,0.045,-0.002,25.25,-3.812,-29.438,-0.001,0.031,0.753,1000,1000
10,2,2023,19,42,26,86,20,-1.875,0.812,9.527,0.527,-0.406,-0.34,0.006,0.045,-0.002,25.25,-3.812,-29.438,-0.001,0.031,0.753,1000,1000
10,2,2023,19,42,26,106,20,-1.875,0.812,9.527,0.527,-0.406,-0.34,-0.225,-0.016,-0.023,25.25,-3.812,-29.438,-0.001,0.031,0.753,1000,1000
10,2,2023,19,42,26,126,20,-1.875,0.812,9.527,0.527,-0.406,-0.34,-0.283,-0.02,-0.004,25.25,-3.812,-29.438,-0.001,0.031,0.753,1000,1000
10,2,2023,19,42,26,146,20,-1.262,-0.066,9.488,0.527,-0.406,-0.34,-0.283,-0.02,-0.004,25.25,-3.812,-29.438,-0.001,0.031,0.753,1000,1000
10,2,2023,19,42,26,166,20,-1.262,-0.066,9.488,0.527,-0.406,-0.34,-0.283,-0.02,-0.004,25.25,-3.812,-29.438,-0.006,0.024,0.753,1000,1000
10,2,2023,19,42,26,186,20,-0.418,-0.527,9.066,0.527,-0.406,-0.34,-0.283,-0.02,-0.004,25.25,-3.812,-29.438,-0.006,0.024,0.753,1000,1000
10,2,2023,19,42,26,206,20,-0.418,-0.527,9.066,0.527,-0.406,-0.34,-0.283,-0.02,-0.004,25.25,-3.812,-29.438,-0.006,0.024,0.754,1000,1000
10,2,2023,19,42,26,226,20,-1.223,0.125,9.367,0.527,-0.406,-0.34,-0.283,-0.02,-0.004,25.25,-3.812,-29.438,-0.006,0.024,0.754,1000,1000
10,2,2023,19,42,26,246,20,-1.223,0.125,9.367,0.527,-0.406,-0.34,-0.283,-0.02,-0.004,25.25,-3.812,-29.438,-0.005,0.024,0.756,1000,1000
10,2,2023,19,42,26,266,20,-0.379,0.508,9.711,0.527,-0.406,-0.34,-0.283,-0.02,-0.004,25.25,-3.812,-29.438,-0.005,0.024,0.756,1000,1000
10,2,2023,19,42,26,286,20,-0.379,0.508,9.711,0.527,-0.406,-0.34,-0.283,-0.02,-0.004,25.25,-3.812,-29.438,-0.005,0.024,0.757,1000,1000
10,2,2023,19,42,26,306,20,-0.688,0.316,9.684,0.527,-0.406,-0.34,-0.283,-0.02,-0.004,25.25,-3.812,-29.438,-0.005,0.024,0.757,1000,1000
10,2,2023,19,42,26,326,20,-0.688,0.316,9.684,0.527,-0.406,-0.34,0.012,-0.025,0.051,25.25,-3.812,-29.438,-0.005,0.024,0.757,1000,1000
10,2,2023,19,42,26,346,20,-0.688,0.316,9.684,0.527,-0.406,-0.34,0.002,-0.008,-0.008,25.25,-3.812,-29.438,-0.005,0.024,0.757,1000,1000
10,2,2023,19,42,26,366,20,-0.688,0.316,9.684,0.527,-0.406,-0.34,0.01,-0.02,-0.062,25.25,-3.812,-29.438,-0.005,0.024,0.757,1000,1000
10,2,2023,19,42,26,386,20,-0.688,0.316,9.684,-0.781,-0.004,-0.117,0.01,-0.02,-0.062,25.25,-3.812,-29.438,-0.005,0.024,0.757,1000,1000
10,2,2023,19,42,26,406,20,-0.688,0.316,9.684,-1.289,0.34,-0.031,0.01,-0.02,-0.062,25.25,-3.812,-29.438,-0.005,0.024,0.757,1000,1000
10,2,2023,19,42,26,426,20,-0.688,0.316,9.684,-1.289,0.34,-0.031,0.01,-0.02,-0.062,25.25,-3.812,-29.438,-0.003,0.021,0.754,1000,1000
10,2,2023,19,42,26,446,20,-0.688,0.316,9.684,-1.289,0.34,-0.031,0.01,-0.02,-0.062,25.25,-3.812,-29.438,-0.003,0.021,0.752,1000,1000
10,2,2023,19,42,26,466,20,-1.836,1.121,9.91,-1.289,0.34,-0.031,0.01,-0.02,-0.062,25.25,-3.812,-29.438,-0.003,0.021,0.752,1000,1000
10,2,2023,19,42,26,486,20,-1.836,1.121,9.91,-1.289,0.34,-0.031,0.01,-0.02,-0.062,25.25,-3.812,-29.438,-0.002,0.021,0.751,1000,1000
10,2,2023,19,42,26,506,20,-1.836,1.121,9.91,-1.289,0.34,-0.031,-0.018,-0.016,-0.043,25.25,-3.812,-29.438,-0.002,0.021,0.751,1000,1000
10,2,2023,19,42,26,526,20,-1.836,1.121,9.91,-1.289,0.34,-0.031,-0.01,0.002,-0.014,25.25,-3.812,-29.438,-0.002,0.021,0.751,1000,1000
10,2,2023,19,42,26,546,20,-1.836,1.121,9.91,-1.289,0.34,-0.031,-0.01,0.002,-0.014,25.25,-3.812,-29.438,-0.001,0.02,0.75,1000,1000
10,2,2023,19,42,26,566,20,-1.836,1.121,9.91,-1.289,0.34,-0.031,-0.01,0.002,-0.014,25.25,-3.812,-29.438,-0.001,0.02,0.75,1000,1000
10,2,2023,19,42,26,586,20,-1.07,0.316,9.645,-1.289,0.34,-0.031,-0.01,0.002,-0.014,25.25,-3.812,-29.438,-0.001,0.02,0.75,1000,1000
10,2,2023,19,42,26,606,20,-1.07,0.316,9.645,-1.289,0.34,-0.031,-0.01,0.002,-0.014,25.25,-3.812,-29.438,-0.001,0.02,0.751,1000,1000
10,2,2023,19,42,26,626,20,-1.07,0.316,9.645,-1.09,-0.066,-0.07,-0.01,0.002,-0.014,25.25,-3.812,-29.438,-0.001,0.02,0.751,1000,1000
10,2,2023,19,42,26,646,20,-1.07,0.316,9.645,-1.09,-0.066,-0.07,0.012,0.004,-0.074,25.25,-3.812,-29.438,-0.001,0.02,0.751,1000,1000
10,2,2023,19,42,27,666,20,-1.07,0.316,9.645,-1.227,0.043,-0.07,0.012,0.004,-0.074,25.25,-3.812,-29.438,-0.001,0.02,0.751,1000,1000
10,2,2023,19,42,27,686,20,-1.07,0.316,9.645,-1.227,0.043,-0.07,0.012,0.004,-0.074,25.25,-3.812,-29.438,0,0.02,0.749,1000,1000
10,2,2023,19,42,27,706,20,-1.07,0.316,9.645,-1.227,0.043,-0.07,0.012,0.004,-0.074,25.25,-3.812,-29.438,0,0.02,0.748,1000,1000
10,2,2023,19,42,27,726,20,-1.223,0.316,9.602,-1.227,0.043,-0.07,0.012,0.004,-0.074,25.25,-3.812,-29.438,0,0.02,0.748,1000,1000
10,2,2023,19,42,27,746,20,-1.223,0.316,9.602,-1.227,0.043,-0.07,0.012,0.004,-0.074,25.25,-3.812,-29.438,0,0.02,0.746,1000,1000
10,2,2023,19,42,27,766,20,-1.223,0.316,9.602,-1.227,0.043,-0.07,0.01,0.049,-0.105,25.25,-3.812,-29.438,0,0.02,0.746,1000,1000
10,2,2023,19,42,27,786,20,-1.262,0.391,9.645,-1.227,0.043,-0.07,0.01,0.049,-0.105,25.25,-3.812,-29.438,0,0.02,0.746,1000,1000
10,2,2023,19,42,27,806,20,-1.262,0.391,9.645,-0.934,0.109,-0.031,0.01,0.049,-0.105,25.25,-3.812,-29.438,0,0.02,0.746,1000,1000
10,2,2023,19,42,27,826,20,-1.262,0.391,9.645,-0.879,0.109,-0.062,0.01,0.049,-0.105,25.25,-3.812,-29.438,0,0.02,0.746,1000,1000
10,2,2023,19,42,27,846,20,-1.262,0.391,9.645,-0.641,0.035,-0.023,0.01,0.049,-0.105,25.25,-3.812,-29.438,0,0.02,0.746,1000,1000
10,2,2023,19,42,27,866,20,-1.262,0.391,9.645,-0.113,0.074,-0.023,0.01,0.049,-0.105,25.25,-3.812,-29.438,0,0.02,0.746,1000,1000
10,2,2023,19,42,27,886,20,-1.262,0.391,9.645,-0.297,-0.004,-0.023,0.01,0.049,-0.105,25.25,-3.812,-29.438,0,0.02,0.746,1000,1000
10,2,2023,19,42,27,906,20,-1.262,0.391,9.645,-0.297,-0.004,-0.023,-0.021,-0.006,0.037,25.25,-3.812,-29.438,0,0.02,0.746,1000,1000
10,2,2023,19,42,27,926,20,-1.262,0.391,9.645,-0.297,-0.004,-0.023,-0.021,-0.006,0.037,27.562,-2.188,-24.875,0,0.02,0.746,1000,1000
10,2,2023,19,42,27,946,20,-1.262,0.391,9.645,-0.129,0.051,-0.031,-0.021,-0.006,0.037,27.562,-2.188,-24.875,0,0.02,0.746,1000,1000
10,2,2023,19,42,27,966,20,-1.262,0.391,9.645,-0.129,0.051,-0.031,-0.016,-0.006,0.018,27.562,-2.188,-24.875,0,0.02,0.746,1000,1000
10,2,2023,19,42,27,986,20,-1.262,0.391,9.645,-0.207,-0.02,0.09,-0.016,-0.006,0.018,27.562,-2.188,-24.875,0,0.02,0.746,1000,1000
10,2,2023,19,42,27,6,20,-1.262,0.391,9.645,-0.391,-0.02,-0.023,-0.016,-0.006,0.018,27.562,-2.188,-24.875,0,0.02,0.746,1000,1000
10,2,2023,19,42,27,26,20,-1.262,0.391,9.645,-0.41,0.219,0.059,-0.016,-0.006,0.018,27.562,-2.188,-24.875,0,0.02,0.746,1000,1000
10,2,2023,19,42,27,46,20,-1.262,0.391,9.645,-0.41,0.219,0.059,-0.016,-0.006,0.018,27.562,-2.188,-24.875,-0.003,0.02,0.742,1000,1000
10,2,2023,19,42,27,66,20,-1.262,0.391,9.645,-0.195,-0.41,-0.094,-0.016,-0.006,0.018,27.562,-2.188,-24.875,-0.003,0.02,0.742,1000,1000
10,2,2023,19,42,27,86,20,-1.262,0.391,9.645,0.676,-0.141,0.207,-0.016,-0.006,0.018,27.562,-2.188,-24.875,-0.003,0.02,0.742,1000,1000
10,2,2023,19,42,27,106,20,-1.262,0.391,9.645,-0.465,0.203,-0.016,-0.016,-0.006,0.018,27.562,-2.188,-24.875,-0.003,0.02,0.742,1000,1000
10,2,2023,19,42,27,126,20,-1.262,0.391,9.645,-0.305,0.012,-0.094,-0.016,-0.006,0.018,27.562,-2.188,-24.875,-0.003,0.02,0.742,1000,1000
10,2,2023,19,42,27,146,20,-1.262,0.391,9.645,-0.113,0.012,0.023,-0.016,-0.006,0.018,27.562,-2.188,-24.875,-0.003,0.02,0.742,1000,1000
10,2,2023,19,42,27,166,20,-1.262,0.391,9.645,-0.227,0.051,-0.055,-0.016,-0.006,0.018,27.562,-2.188,-24.875,-0.003,0.02,0.742,1000,1000
10,2,2023,19,42,27,186,20,-1.262,0.391,9.645,-0.18,-0.027,-0.016,-0.016,-0.006,0.018,27.562,-2.188,-24.875,-0.003,0.02,0.742,1000,1000
10,2,2023,19,42,27,206,20,-1.262,0.391,9.645,-0.18,0.051,0.023,-0.016,-0.006,0.018,27.562,-2.188,-24.875,-0.003,0.02,0.742,1000,1000
10,2,2023,19,42,27,226,20,-1.262,0.391,9.645,-0.172,-0.027,0.023,-0.016,-0.006,0.018,27.562,-2.188,-24.875,-0.003,0.02,0.742,1000,1000
10,2,2023,19,42,27,246,20,-1.262,0.391,9.645,-0.172,-0.027,0.023,-0.016,-0.006,0.018,27.875,-2.188,-26.312,-0.003,0.02,0.742,1000,1000
10,2,2023,19,42,27,266,20,-1.262,0.391,9.645,-0.164,-0.02,-0.016,-0.016,-0.006,0.018,27.875,-2.188,-26.312,-0.003,0.02,0.742,1000,1000
10,2,2023,19,42,27,286,20,-1.262,0.391,9.645,-0.09,0.012,0.023,-0.016,-0.006,0.018,27.875,-2.188,-26.312,-0.003,0.02,0.742,1000,1000
10,2,2023,19,42,27,306,20,-1.262,0.391,9.645,-0.121,-0.027,0.023,-0.016,-0.006,0.018,27.875,-2.188,-26.312,-0.003,0.02,0.742,1000,1000
10,2,2023,19,42,27,326,20,-1.262,0.391,9.645,-0.082,0.004,-0.016,-0.016,-0.006,0.018,27.875,-2.188,-26.312,-0.003,0.02,0.742,1000,1000
10,2,2023,19,42,27,346,20,-1.262,0.391,9.645,-0.121,-0.035,0.023,-0.016,-0.006,0.018,27.875,-2.188,-26.312,-0.003,0.02,0.742,1000,1000
10,2,2023,19,42,27,366,20,-1.262,0.391,9.645,-0.113,0.012,-0.016,-0.016,-0.006,0.018,27.875,-2.188,-26.312,-0.003,0.02,0.742,1000,1000
10,2,2023,19,42,27,386,20,-1.262,0.391,9.645,-0.113,0.012,-0.016,-0.016,-0.006,0.018,27.5,-2.188,-26.375,-0.003,0.02,0.742,1000,1000
10,2,2023,19,42,27,406,20,-1.262,0.391,9.645,-0.105,0.004,0.023,-0.016,-0.006,0.018,27.5,-2.188,-26.375,-0.003,0.02,0.742,1000,1000
10,2,2023,19,42,27,426,20,-1.262,0.391,9.645,-0.098,-0.035,-0.016,-0.016,-0.006,0.018,27.5,-2.188,-26.375,-0.003,0.02,0.742,1000,1000
10,2,2023,19,42,27,446,20,-1.262,0.391,9.645,-0.098,0.004,-0.016,-0.016,-0.006,0.018,27.5,-2.188,-26.375,-0.003,0.02,0.742,1000,1000
10,2,2023,19,42,27,466,20,-1.262,0.391,9.645,-0.09,0.012,0.023,-0.016,-0.006,0.018,27.5,-2.188,-26.375,-0.003,0.02,0.742,1000,1000
10,2,2023,19,42,27,486,20,-1.262,0.391,9.645,-0.004,0.004,-0.016,-0.016,-0.006,0.018,27.5,-2.188,-26.375,-0.003,0.02,0.742,1000,1000
10,2,2023,19,42,27,506,20,-1.262,0.391,9.645,-0.004,0.004,-0.016,-0.016,-0.006,0.018,27.5,-2.188,-26.375,-0.003,0.02,0.742,1000,1000
10,2,2023,19,42,27,526,20,-1.262,0.391,9.645,-0.004,0.004,-0.016,-0.016,-0.006,0.018,27.938,-1.562,-26.375,-0.003,0.02,0.742,1000,1000
10,2,2023,19,42,27,546,20,-1.262,0.391,9.645,-0.004,0.004,-0.016,-0.016,-0.006,0.018,27.938,-1.562,-26.375,-0.003,0.02,0.742,1000,1000
10,2,2023,19,42,27,566,20,-1.262,0.391,9.645,-0.004,0.004,-0.016,-0.016,-0.006,0.018,28.875,-1.75,-26.25,-0.003,0.02,0.742,1000,1000
10,2,2023,19,42,27,586,20,-1.262,0.391,9.645,-0.004,0.004,0.023,-0.016,-0.006,0.018,28.875,-1.75,-26.25,-0.003,0.02,0.742,1000,1000
10,2,2023,19,42,27,606,20,-1.262,0.391,9.645,-0.004,0.004,0.023,-0.016,-0.006,0.018,28.875,-1.75,-26.25,-0.003,0.02,0.742,1000,1000
10,2,2023,19,42,27,626,20,-1.262,0.391,9.645,-0.004,0.004,0.023,-0.016,-0.006,0.018,27.938,-1.312,-25.875,-0.003,0.02,0.742,1000,1000
10,2,2023,19,42,27,646,20,-1.262,0.391,9.645,-0.004,-0.004,-0.016,-0.016,-0.006,0.018,27.938,-1.312,-25.875,-0.003,0.02,0.742,1000,1000
10,2,2023,19,42,28,666,20,-1.262,0.391,9.645,-0.004,-0.004,-0.016,-0.016,-0.006,0.018,27.75,-0.438,-24.938,-0.003,0.02,0.742,1000,1000
10,2,2023,19,42,28,686,20,-1.262,0.391,9.645,-0.004,-0.004,-0.016,-0.016,-0.006,0.018,27.75,-0.438,-24.938,-0.003,0.02,0.742,1000,1000
10,2,2023,19,42,28,706,20,-1.262,0.391,9.645,-0.004,-0.004,-0.016,-0.016,-0.006,0.018,27.5,-2.5,-25.875,-0.003,0.02,0.742,1000,1000
10,2,2023,19,42,28,726,20,-1.262,0.391,9.645,-0.004,-0.004,0.023,-0.016,-0.006,0.018,27.5,-2.5,-25.875,-0.003,0.02,0.742,1000,1000
10,2,2023,19,42,28,746,20,-1.262,0.391,9.645,-0.004,-0.004,-0.016,-0.016,-0.006,0.018,27.5,-2.5,-25.875,-0.003,0.02,0.742,1000,1000
10,2,2023,19,42,28,766,20,-1.262,0.391,9.645,-0.004,0.035,-0.016,-0.016,-0.006,0.018,27.5,-2.5,-25.875,-0.003,0.02,0.742,1000,1000
10,2,2023,19,42,28,786,20,-1.262,0.391,9.645,-0.004,-0.004,-0.016,-0.016,-0.006,0.018,27.5,-2.5,-25.875,-0.003,0.02,0.742,1000,1000
10,2,2023,19,42,28,806,20,-1.262,0.391,9.645,-0.004,-0.004,-0.016,-0.016,-0.006,0.018,28.875,-2.062,-24.812,-0.003,0.02,0.742,1000,1000
10,2,2023,19,42,28,826,20,-1.262,0.391,9.645,-0.004,-0.043,0.023,-0.016,-0.006,0.018,28.875,-2.062,-24.812,-0.003,0.02,0.742,1000,1000
10,2,2023,19,42,28,846,20,-1.262,0.391,9.645,-0.004,-0.043,0.023,-0.016,-0.006,0.018,28.312,-1.562,-25.375,-0.003,0.02,0.742,1000,1000
10,2,2023,19,42,28,866,20,-1.262,0.391,9.645,-0.004,-0.043,0.023,-0.016,-0.006,0.018,28.312,-1.562,-25.375,-0.003,0.02,0.742,1000,1000
10,2,2023,19,42,28,886,20,-1.262,0.391,9.645,-0.004,-0.043,0.023,-0.016,-0.006,0.018,27.938,-1.562,-25.875,-0.003,0.02,0.742,1000,1000
10,2,2023,19,42,28,906,20,-1.262,0.391,9.645,-0.004,-0.043,-0.016,-0.016,-0.006,0.018,27.938,-1.562,-25.875,-0.003,0.02,0.742,1000,1000
10,2,2023,19,42,28,926,20,-1.262,0.391,9.645,-0.004,-0.004,-0.016,-0.016,-0.006,0.018,27.938,-1.562,-25.875,-0.003,0.02,0.742,1000,1000
10,2,2023,19,42,28,946,20,-1.262,0.391,9.645,-0.004,-0.004,-0.016,-0.016,-0.006,0.018,27.875,-1.625,-26.812,-0.003,0.02,0.742,1000,1000
10,2,2023,19,42,28,966,20,-1.262,0.391,9.645,-0.004,0.035,-0.094,-0.016,-0.006,0.018,27.875,-1.625,-26.812,-0.003,0.02,0.742,1000,1000
10,2,2023,19,42,28,986,20,-1.262,0.391,9.645,-0.004,0.035,-0.094,-0.016,-0.006,0.018,27.875,-2.5,-25.375,-0.003,0.02,0.742,1000,1000
10,2,2023,19,42,28,6,20,-1.262,0.391,9.645,-0.039,-0.004,-0.016,-0.016,-0.006,0.018,27.875,-2.5,-25.375,-0.003,0.02,0.742,1000,1000
10,2,2023,19,42,28,26,20,-1.262,0.391,9.645,-0.039,-0.004,-0.016,-0.016,-0.006,0.018,28.25,-2.125,-25.375,-0.003,0.02,0.742,1000,1000
10,2,2023,19,42,28,46,20,-1.262,0.391,9.645,-0.039,0.035,-0.133,-0.016,-0.006,0.018,28.25,-2.125,-25.375,-0.003,0.02,0.742,1000,1000
10,2,2023,19,42,28,66,20,-1.262,0.391,9.645,-0.004,0.082,0.066,-0.016,-0.006,0.018,28.25,-2.125,-25.375,-0.003,0.02,0.742,1000,1000
10,2,2023,19,42,28,86,20,-1.262,0.391,9.645,-0.004,0.082,0.066,-0.016,-0.006,0.018,28.875,-2.062,-26.812,-0.003,0.02,0.742,1000,1000
10,2,2023,19,42,28,106,20,-1.262,0.391,9.645,-0.004,0.043,0.031,-0.016,-0.006,0.018,28.875,-2.062,-26.812,-0.003,0.02,0.742,1000,1000
10,2,2023,19,42,28,126,20,-1.262,0.391,9.645,-0.004,0.043,0.031,-0.016,-0.006,0.018,27.562,-1.562,-26.375,-0.003,0.02,0.742,1000,1000
10,2,2023,19,42,28,146,20,-1.262,0.391,9.645,-0.039,0.074,-0.047,-0.016,-0.006,0.018,27.562,-1.562,-26.375,-0.003,0.02,0.742,1000,1000
10,2,2023,19,42,28,166,20,-1.262,0.391,9.645,-0.039,0.074,-0.047,-0.016,-0.006,0.018,28.688,-1.25,-25.812,-0.003,0.02,0.742,1000,1000
10,2,2023,19,42,28,186,20,-1.262,0.391,9.645,-0.039,0.074,-0.047,-0.016,-0.006,0.018,28.688,-1.25,-25.812,-0.008,0.024,0.742,1000,1000
10,2,2023,19,42,28,206,20,-1.262,0.391,9.645,-0.039,0.074,-0.047,-0.016,-0.006,0.018,27.938,-1.312,-25.875,-0.008,0.024,0.742,1000,1000
10,2,2023,19,42,28,226,20,-1.262,0.391,9.645,-0.004,0.074,0.059,-0.016,-0.006,0.018,27.938,-1.312,-25.875,-0.008,0.024,0.742,1000,1000
10,2,2023,19,42,28,246,20,-1.262,0.391,9.645,-0.004,-0.086,0.023,-0.016,-0.006,0.018,27.938,-1.312,-25.875,-0.008,0.024,0.742,1000,1000
10,2,2023,19,42,28,266,20,-1.262,0.391,9.645,-0.004,-0.086,0.023,-0.016,-0.006,0.018,28.312,-1.562,-25.375,-0.008,0.024,0.742,1000,1000
10,2,2023,19,42,28,286,20,-1.262,0.391,9.645,-0.004,-0.086,-0.016,-0.016,-0.006,0.018,28.312,-1.562,-25.375,-0.008,0.024,0.742,1000,1000
10,2,2023,19,42,28,306,20,-1.262,0.391,9.645,-0.004,-0.086,-0.016,-0.016,-0.006,0.018,27.875,-2.188,-25.375,-0.008,0.024,0.742,1000,1000
10,2,2023,19,42,28,326,20,-1.262,0.391,9.645,0.035,-0.051,-0.016,-0.016,-0.006,0.018,27.875,-2.188,-25.375,-0.008,0.024,0.742,1000,1000
10,2,2023,19,42,28,346,20,-1.262,0.391,9.645,0.035,-0.051,-0.016,-0.016,-0.006,0.018,28.312,-0.688,-26.875,-0.008,0.024,0.742,1000,1000
10,2,2023,19,42,28,366,20,-1.262,0.391,9.645,0.035,-0.051,-0.016,-0.016,-0.006,0.018,28.312,-0.688,-26.875,-0.008,0.024,0.742,1000,1000
10,2,2023,19,42,28,386,20,-1.262,0.391,9.645,-0.047,0.035,-0.016,-0.016,-0.006,0.018,28.312,-0.688,-26.875,-0.008,0.024,0.742,1000,1000
10,2,2023,19,42,28,406,20,-1.262,0.391,9.645,0.027,-0.043,0.023,-0.016,-0.006,0.018,28.312,-0.688,-26.875,-0.008,0.024,0.742,1000,1000
10,2,2023,19,42,28,426,20,-1.262,0.391,9.645,-0.012,0.035,0.023,-0.016,-0.006,0.018,28.312,-0.688,-26.875,-0.008,0.024,0.742,1000,1000
10,2,2023,19,42,28,446,20,-1.262,0.391,9.645,-0.012,-0.043,-0.055,-0.016,-0.006,0.018,28.312,-0.688,-26.875,-0.008,0.024,0.742,1000,1000
10,2,2023,19,42,28,466,20,-1.262,0.391,9.645,-0.012,-0.004,0.031,-0.016,-0.006,0.018,28.312,-0.688,-26.875,-0.008,0.024,0.742,1000,1000
10,2,2023,19,42,28,486,20,-1.262,0.391,9.645,-0.012,-0.004,0.031,-0.016,-0.006,0.018,28.75,-2.375,-27.75,-0.008,0.024,0.742,1000,1000
10,2,2023,19,42,28,506,20,-1.262,0.391,9.645,-0.012,-0.004,0.031,-0.016,-0.006,0.018,28.75,-2.375,-27.75,-0.009,0.025,0.742,1000,1000
10,2,2023,19,42,28,526,20,-1.262,0.391,9.645,-0.012,-0.004,0.031,-0.016,-0.006,0.018,27.875,-1.625,-27.375,-0.009,0.025,0.742,1000,1000
10,2,2023,19,42,28,546,20,-1.262,0.391,9.645,-0.012,-0.004,0.031,-0.016,-0.006,0.018,28.125,-1.812,-27.812,-0.009,0.025,0.742,1000,1000
10,2,2023,19,42,28,566,20,-1.262,0.391,9.645,-0.012,-0.012,0.059,-0.016,-0.006,0.018,28.125,-1.812,-27.812,-0.009,0.025,0.742,1000,1000
10,2,2023,19,42,28,586,20,-1.262,0.391,9.645,-0.012,-0.012,0.059,-0.016,-0.006,0.018,29,-1.5,-25.312,-0.009,0.025,0.742,1000,1000
10,2,2023,19,42,28,606,20,-1.262,0.391,9.645,-0.012,0.027,-0.016,-0.016,-0.006,0.018,29,-1.5,-25.312,-0.009,0.025,0.742,1000,1000
10,2,2023,19,42,28,626,20,-0.496,0.238,9.641,-0.012,0.027,-0.016,-0.016,-0.006,0.018,29,-1.5,-25.312,-0.009,0.025,0.742,1000,1000
10,2,2023,19,42,28,646,20,-0.496,0.238,9.641,-0.012,0.027,-0.016,-0.016,-0.006,0.018,29,-1.5,-25.312,-0.009,0.025,0.742,1000,1000
10,2,2023,19,42,29,666,20,-0.496,0.238,9.641,-0.012,0.027,-0.016,-0.016,-0.006,0.018,28.312,-0.375,-27.375,-0.009,0.025,0.742,1000,1000
10,2,2023,19,42,29,686,20,-0.496,0.238,9.641,-0.012,-0.012,-0.016,-0.016,-0.006,0.018,28.312,-0.375,-27.375,-0.009,0.025,0.742,1000,1000
10,2,2023,19,42,29,706,20,-0.496,0.238,9.641,-0.012,-0.012,-0.016,-0.016,-0.006,0.018,28.938,-1.5,-26.25,-0.009,0.025,0.742,1000,1000
10,2,2023,19,42,29,726,20,-0.496,0.238,9.641,-0.012,-0.004,0.023,-0.016,-0.006,0.018,28.938,-1.5,-26.25,-0.009,0.025,0.742,1000,1000
10,2,2023,19,42,29,746,20,-0.496,0.238,9.641,-0.012,-0.004,0.023,-0.016,-0.006,0.018,28.938,-1.5,-26.25,-0.009,0.025,0.742,1000,1000
10,2,2023,19,42,29,766,20,-0.496,0.238,9.641,-0.012,0.035,-0.016,-0.016,-0.006,0.018,28.938,-1.5,-26.25,-0.009,0.025,0.742,1000,1000
10,2,2023,19,42,29,786,20,-0.496,0.238,9.641,-0.012,0.035,0.023,-0.016,-0.006,0.018,28.938,-1.5,-26.25,-0.009,0.025,0.742,1000,1000
10,2,2023,19,42,29,806,20,-0.496,0.238,9.641,-0.012,0.035,0.023,-0.016,-0.006,0.018,28.125,-2.125,-27.375,-0.009,0.025,0.742,1000,1000
10,2,2023,19,42,29,826,20,-0.496,0.238,9.641,-0.012,0.027,-0.023,-0.016,-0.006,0.018,28.125,-2.125,-27.375,-0.009,0.025,0.742,1000,1000
10,2,2023,19,42,29,846,20,-0.496,0.238,9.641,-0.012,0.027,-0.023,-0.016,-0.006,0.018,27.438,-2.188,-27.375,-0.009,0.025,0.742,1000,1000
10,2,2023,19,42,29,866,20,-0.496,0.238,9.641,-0.012,0.027,-0.023,-0.016,-0.006,0.018,28.375,-0.062,-26.875,-0.009,0.025,0.742,1000,1000
10,2,2023,19,42,29,886,20,-0.496,0.238,9.641,-0.012,-0.012,-0.023,-0.016,-0.006,0.018,28.375,-0.062,-26.875,-0.009,0.025,0.742,1000,1000
10,2,2023,19,42,29,906,20,-0.496,0.238,9.641,-0.047,-0.012,-0.023,-0.016,-0.006,0.018,28.375,-0.062,-26.875,-0.009,0.025,0.742,1000,1000
10,2,2023,19,42,29,926,20,-0.496,0.238,9.641,-0.012,-0.051,0.016,-0.016,-0.006,0.018,28.375,-0.062,-26.875,-0.009,0.025,0.742,1000,1000
10,2,2023,19,42,29,946,20,-0.496,0.238,9.641,-0.012,-0.051,0.016,-0.016,-0.006,0.018,28.75,0.25,-27.375,-0.009,0.025,0.742,1000,1000
10,2,2023,19,42,29,966,20,-0.496,0.238,9.641,-0.012,-0.051,0.016,-0.016,-0.006,0.018,27.875,-0.688,-28.375,-0.009,0.025,0.742,1000,1000
10,2,2023,19,42,29,986,20,-0.496,0.238,9.641,-0.012,-0.051,0.016,-0.016,-0.006,0.018,28.062,-2.438,-28.312,-0.009,0.025,0.742,1000,1000
10,2,2023,19,42,29,6,20,-0.496,0.238,9.641,-0.012,-0.051,0.016,-0.016,-0.006,0.018,28.062,-2.438,-28.312,-0.009,0.025,0.742,1000,1000
10,2,2023,19,42,29,26,20,-0.496,0.238,9.641,-0.012,-0.051,0.016,-0.016,-0.006,0.018,28.125,-1.812,-28.312,-0.009,0.025,0.742,1000,1000
10,2,2023,19,42,29,46,20,-0.496,0.238,9.641,0.027,-0.012,0.016,-0.016,-0.006,0.018,28.125,-1.812,-28.312,-0.009,0.025,0.742,1000,1000
10,2,2023,19,42,29,66,20,-0.496,0.238,9.641,0.027,-0.012,0.016,-0.016,-0.006,0.018,28.125,-1.812,-28.312,-0.009,0.026,0.742,1000,1000
10,2,2023,19,42,29,86,20,-0.496,0.238,9.641,-0.012,-0.012,-0.062,-0.016,-0.006,0.018,28.125,-1.812,-28.312,-0.009,0.026,0.742,1000,1000
10,2,2023,19,42,29,106,20,-0.496,0.238,9.641,-0.012,-0.012,-0.062,-0.016,-0.006,0.018,28.125,-1.812,-28.312,-0.009,0.026,0.742,1000,1000
10,2,2023,19,42,29,126,20,-0.496,0.238,9.641,-0.012,-0.012,-0.062,-0.016,-0.006,0.018,27.562,-0.75,-27.875,-0.009,0.026,0.742,1000,1000
10,2,2023,19,42,29,146,20,-0.496,0.238,9.641,-0.012,-0.012,-0.062,-0.016,-0.006,0.018,27.75,-2.438,-27.375,-0.009,0.026,0.742,1000,1000
10,2,2023,19,42,29,166,20,-0.496,0.238,9.641,-0.012,-0.012,-0.062,-0.016,-0.006,0.018,28.938,-1.75,-26.25,-0.009,0.026,0.742,1000,1000
10,2,2023,19,42,29,186,20,-0.496,0.238,9.641,-0.012,-0.012,-0.062,-0.016,-0.006,0.018,28,-0.688,-25.875,-0.009,0.026,0.742,1000,1000
10,2,2023,19,42,29,206,20,-0.496,0.238,9.641,-0.012,-0.012,0.023,-0.016,-0.006,0.018,28,-0.688,-25.875,-0.009,0.026,0.742,1000,1000
10,2,2023,19,42,29,226,20,-0.496,0.238,9.641,-0.012,-0.012,0.023,-0.016,-0.006,0.018,28.562,-2.125,-25.312,-0.009,0.026,0.742,1000,1000
10,2,2023,19,42,29,246,20,-0.496,0.238,9.641,-0.012,-0.012,-0.016,-0.016,-0.006,0.018,28.562,-2.125,-25.312,-0.009,0.026,0.742,1000,1000
10,2,2023,19,42,29,266,20,-0.496,0.238,9.641,-0.012,-0.012,-0.016,-0.016,-0.006,0.018,28.562,-2.125,-25.312,-0.009,0.026,0.742,1000,1000
10,2,2023,19,42,29,286,20,-0.496,0.238,9.641,-0.012,-0.012,-0.016,-0.016,-0.006,0.018,28.562,-2.125,-25.312,-0.009,0.026,0.742,1000,1000
10,2,2023,19,42,29,306,20,-0.496,0.238,9.641,-0.012,-0.012,-0.016,-0.016,-0.006,0.018,27.812,-1,-29.875,-0.009,0.026,0.742,1000,1000
10,2,2023,19,42,29,326,20,-0.496,0.238,9.641,-0.012,-0.012,-0.016,-0.016,-0.006,0.018,28.188,-1.25,-28.312,-0.009,0.026,0.742,1000,1000
10,2,2023,19,42,29,346,20,-0.496,0.238,9.641,-0.012,-0.012,-0.008,-0.016,-0.006,0.018,28.188,-1.25,-28.312,-0.009,0.026,0.742,1000,1000
10,2,2023,19,42,29,366,20,-0.496,0.238,9.641,-0.012,-0.012,-0.008,-0.016,-0.006,0.018,28.188,-1.25,-28.312,-0.009,0.026,0.742,1000,1000
10,2,2023,19,42,29,386,20,-0.496,0.238,9.641,-0.012,-0.051,0.031,-0.016,-0.006,0.018,28.188,-1.25,-28.312,-0.009,0.026,0.742,1000,1000
10,2,2023,19,42,29,406,20,-0.496,0.238,9.641,-0.012,-0.051,0.031,-0.016,-0.006,0.018,28.062,-2.438,-28.875,-0.009,0.026,0.742,1000,1000
10,2,2023,19,42,29,426,20,-0.496,0.238,9.641,0.027,-0.012,0.023,-0.016,-0.006,0.018,28.062,-2.438,-28.875,-0.009,0.026,0.742,1000,1000
10,2,2023,19,42,29,446,20,-0.496,0.238,9.641,0.027,-0.012,0.023,-0.016,-0.006,0.018,28.062,-1.812,-29.312,-0.009,0.026,0.742,1000,1000
10,2,2023,19,42,29,466,20,-0.496,0.238,9.641,0.027,-0.012,0.023,-0.016,-0.006,0.018,28.062,-1.812,-29.312,-0.009,0.026,0.742,1000,1000
10,2,2023,19,42,29,486,20,-0.496,0.238,9.641,0.027,-0.012,0.023,-0.016,-0.006,0.018,27.375,-2.5,-27.875,-0.009,0.026,0.742,1000,1000
10,2,2023,19,42,29,506,20,-0.496,0.238,9.641,0.027,-0.012,0.023,-0.016,-0.006,0.018,28,-0.688,-26.938,-0.009,0.026,0.742,1000,1000
10,2,2023,19,42,29,526,20,-0.496,0.238,9.641,0.027,-0.012,0.023,-0.016,-0.006,0.018,28.625,-1.812,-25.812,-0.009,0.026,0.742,1000,1000
10,2,2023,19,42,29,546,20,-0.496,0.238,9.641,-0.012,-0.012,0.023,-0.016,-0.006,0.018,28.625,-1.812,-25.812,-0.009,0.026,0.742,1000,1000
10,2,2023,19,42,29,566,20,-0.496,0.238,9.641,-0.012,-0.012,0.023,-0.016,-0.006,0.018,28.625,-1.812,-25.812,-0.01,0.026,0.742,1000,1000
10,2,2023,19,42,29,586,20,-0.496,0.238,9.641,-0.012,-0.012,0.023,-0.016,-0.006,0.018,28.188,-1.812,-26.875,-0.01,0.026,0.742,1000,1000
10,2,2023,19,42,29,606,20,-0.496,0.238,9.641,-0.02,-0.012,-0.016,-0.016,-0.006,0.018,28.188,-1.812,-26.875,-0.01,0.026,0.742,1000,1000
10,2,2023,19,42,29,626,20,-0.496,0.238,9.641,-0.02,-0.012,-0.016,-0.016,-0.006,0.018,28,-2.75,-28.312,-0.01,0.026,0.742,1000,1000
10,2,2023,19,42,29,646,20,-0.496,0.238,9.641,-0.02,-0.012,-0.016,-0.016,-0.006,0.018,28.812,-1.5,-28.812,-0.01,0.026,0.742,1000,1000
10,2,2023,19,42,30,666,20,-0.496,0.238,9.641,-0.02,-0.012,-0.016,-0.016,-0.006,0.018,27.688,-2.438,-29.375,-0.01,0.026,0.742,1000,1000
10,2,2023,19,42,30,686,20,-0.496,0.238,9.641,-0.02,-0.012,-0.016,-0.016,-0.006,0.018,27.688,-2.438,-29.375,-0.01,0.026,0.742,1000,1000
10,2,2023,19,42,30,706,20,-0.496,0.238,9.641,0.027,-0.012,0.023,-0.016,-0.006,0.018,27.688,-2.438,-29.375,-0.01,0.026,0.742,1000,1000
10,2,2023,19,42,30,726,20,-0.496,0.238,9.641,0.027,-0.012,0.023,-0.016,-0.006,0.018,28.75,-2.375,-28.812,-0.01,0.026,0.742,1000,1000
10,2,2023,19,42,30,746,20,-0.496,0.238,9.641,-0.012,-0.012,-0.016,-0.016,-0.006,0.018,28.75,-2.375,-28.812,-0.01,0.026,0.742,1000,1000
10,2,2023,19,42,30,766,20,-0.496,0.238,9.641,-0.012,-0.012,-0.016,-0.016,-0.006,0.018,27.5,-1,-29.375,-0.01,0.026,0.742,1000,1000
10,2,2023,19,42,30,786,20,-0.496,0.238,9.641,-0.012,-0.012,-0.016,0,0,0,27.5,-1,-29.375,-0.01,0.026,0.742,1000,1000
10,2,2023,19,42,30,806,20,-0.496,0.238,9.641,-0.012,-0.012,-0.016,0,0,0,27.5,-1,-29.375,-0.01,0.026,0.742,1000,1000
10,2,2023,19,42,30,826,20,-0.496,0.238,9.641,-0.012,-0.012,-0.016,0,0,0,28.25,-0.625,-27.875,-0.01,0.026,0.742,1000,1000
10,2,2023,19,42,30,846,20,-0.496,0.238,9.641,-0.012,-0.012,0.023,0,0,0,28.25,-0.625,-27.875,-0.01,0.026,0.742,1000,1000
10,2,2023,19,42,30,866,20,-0.496,0.238,9.641,-0.012,-0.012,0.023,0,0,0,27.938,-1.875,-25.875,-0.01,0.026,0.742,1000,1000
10,2,2023,19,42,30,886,20,-0.496,0.238,9.641,-0.012,-0.012,0.023,0,0,0,27.938,-1.875,-25.875,-0.01,0.026,0.742,1000,1000
10,2,2023,19,42,30,906,20,-0.496,0.238,9.641,-0.012,-0.012,0.023,0,0,0,27.75,-1.562,-28.875,-0.01,0.026,0.742,1000,1000
10,2,2023,19,42,30,926,20,-0.496,0.238,9.641,-0.012,-0.012,0.023,0,0,0,28.875,-1.5,-27.812,-0.01,0.026,0.742,1000,1000
10,2,2023,19,42,30,946,20,-0.496,0.238,9.68,-0.012,-0.012,0.023,0,0,0,28.875,-1.5,-27.812,-0.01,0.026,0.742,1000,1000
10,2,2023,19,42,30,966,20,-0.496,0.238,9.68,-0.012,-0.012,0.023,0,0,0,28.75,-2.062,-28.812,-0.01,0.026,0.742,1000,1000
10,2,2023,19,42,30,986,20,-0.496,0.238,9.68,-0.012,-0.012,0.023,0,0,0,28.938,-0.562,-28.812,-0.01,0.026,0.742,1000,1000
10,2,2023,19,42,30,6,20,-0.496,0.238,9.68,-0.012,-0.012,0.023,0,0,0,28.625,-1.812,-25.812,-0.01,0.026,0.742,1000,1000
10,2,2023,19,42,30,27,21,-0.496,0.238,9.68,-0.012,-0.012,0.023,0,0,0,28.625,-1.812,-25.812,-0.01,0.026,0.742,1000,1000
10,2,2023,19,42,30,47,20,-0.496,0.238,9.68,-0.012,-0.012,0.023,0,0,0,28.625,-1.812,-25.812,-0.01,0.026,0.742,1000,1000
10,2,2023,19,42,30,67,20,-0.496,0.238,9.68,-0.012,-0.012,0.023,0,0,0,28.625,-1.812,-25.812,-0.01,0.026,0.742,1000,1000
10,2,2023,19,42,30,87,20,-0.496,0.238,9.68,-0.012,-0.012,0.023,0,0,0,28.625,-1.812,-25.812,-0.01,0.026,0.742,1000,1000
10,2,2023,19,42,30,107,20,-0.496,0.238,9.68,-0.012,-0.012,0.023,0,0,0,28.625,-1.812,-25.812,-0.01,0.026,0.742,1000,1000
10,2,2023,19,42,30,127,20,-0.496,0.238,9.68,-0.012,-0.012,0.023,0,0,0,28.625,-1.812,-25.812,-0.01,0.026,0.742,1000,1000
10,2,2023,19,42,30,147,20,-0.496,0.238,9.68,-0.012,-0.012,0.023,0,0,0,28.625,-1.812,-25.812,-0.01,0.026,0.742,1000,1000
10,2,2023,19,42,30,167,20,-0.457,0.238,9.68,-0.012,-0.012,0.023,0,0,0,28.625,-1.812,-25.812,-0.01,0.026,0.742,1000,1000
10,2,2023,19,42,30,187,20,-0.457,0.238,9.68,-0.012,-0.012,0.023,0,0,0,28.625,-1.812,-25.812,-0.01,0.026,0.742,1000,1000
10,2,2023,19,42,30,207,20,-0.496,0.238,9.641,-0.012,-0.012,0.023,0,0,0,28.625,-1.812,-25.812,-0.01,0.026,0.742,1000,1000
10,2,2023,19,42,30,227,20,-0.496,0.238,9.641,-0.012,-0.012,0.023,0,0,0,28.625,-1.812,-25.812,-0.01,0.026,0.742,1000,1000
10,2,2023,19,42,30,247,20,-0.496,0.238,9.641,-0.012,-0.012,0.023,0,0,0,28.625,-1.812,-25.812,-0.01,0.026,0.742,1000,1000
10,2,2023,19,42,30,267,20,-0.496,0.238,9.641,-0.012,-0.012,0.023,0,0,0,28.625,-1.812,-25.812,-0.01,0.026,0.742,1000,1000
10,2,2023,19,42,30,287,20,-0.496,0.238,9.641,-0.012,-0.012,0.023,0,0,0,28.625,-1.812,-25.812,-0.01,0.026,0.742,1000,1000
10,2,2023,19,42,30,307,20,-0.496,0.238,9.641,-0.012,-0.012,0.023,0,0,0,28.625,-1.812,-25.812,-0.01,0.026,0.742,1000,1000
10,2,2023,19,42,30,327,20,-0.496,0.238,9.641,-0.012,-0.012,0.023,0,0,0,28.312,-1,-25.875,-0.01,0.026,0.742,1000,1000
10,2,2023,19,42,30,347,20,-0.496,0.238,9.641,-0.012,-0.012,0.023,0,0,0,28.312,-1,-25.875,-0.01,0.026,0.742,1000,1000
10,2,2023,19,42,30,367,20,-0.496,0.238,9.641,-0.012,-0.012,0.023,0,0,0,28.312,-1,-25.875,-0.01,0.026,0.742,1000,1000
10,2,2023,19,42,30,387,20,-0.496,0.238,9.641,-0.012,-0.012,-0.016,0,0,0,28.312,-1,-25.875,-0.01,0.026,0.742,1000,1000
10,2,2023,19,42,30,407,20,-0.496,0.238,9.641,-0.012,-0.012,-0.016,0,0,0,28.312,-1,-25.875,-0.01,0.026,0.742,1000,1000
10,2,2023,19,42,30,427,20,-0.496,0.238,9.641,-0.012,-0.012,-0.016,0,0,0,28.312,-1,-25.875,-0.01,0.026,0.742,1000,1000
10,2,2023,19,42,30,447,20,-0.496,0.238,9.641,-0.012,-0.012,-0.016,0,0,0,28.312,-1,-25.875,-0.01,0.026,0.742,1000,1000
10,2,2023,19,42,30,467,20,-0.496,0.238,9.641,-0.012,-0.012,-0.016,0,0,0,28.312,-1,-25.875,-0.01,0.026,0.742,1000,1000
10,2,2023,19,42,30,487,20,-0.496,0.238,9.641,-0.012,-0.012,-0.016,0,0,0,28.312,-1,-25.875,-0.01,0.026,0.742,1000,1000
10,2,2023,19,42,30,507,20,-0.496,0.238,9.641,0.027,-0.012,-0.016,0,0,0,28.312,-1,-25.875,-0.01,0.026,0.742,1000,1000
10,2,2023,19,42,30,527,20,-0.496,0.238,9.641,0.027,-0.012,-0.016,0,0,0,28.312,-1,-25.875,-0.01,0.026,0.742,1000,1000
10,2,2023,19,42,30,547,20,-0.496,0.238,9.641,-0.004,-0.012,0.023,0,0,0,28.312,-1,-25.875,-0.01,0.026,0.742,1000,1000
10,2,2023,19,42,30,567,20,-0.496,0.238,9.641,-0.004,-0.012,0.023,0,0,0,28.312,-1,-25.875,-0.01,0.026,0.742,1000,1000
10,2,2023,19,42,30,587,20,-0.496,0.238,9.641,-0.004,-0.012,0.023,0,0,0,28.312,-1,-25.875,-0.01,0.026,0.742,1000,1000
10,2,2023,19,42,30,607,20,-0.496,0.238,9.641,-0.004,-0.012,0.023,0,0,0,28.312,-1,-25.875,-0.01,0.026,0.742,1000,1000
10,2,2023,19,42,30,627,20,-0.496,0.238,9.641,-0.004,-0.012,0.023,0,0,0,28.312,-1,-25.875,-0.01,0.026,0.742,1000,1000
10,2,2023,19,42,30,647,20,-0.496,0.238,9.641,0.027,-0.012,-0.016,0,0,0,28.312,-1,-25.875,-0.01,0.026,0.742,1000,1000
10,2,2023,19,42,31,667,20,-0.496,0.238,9.641,-0.012,-0.012,-0.016,0,0,0,28.312,-1,-25.875,-0.01,0.026,0.742,1000,1000
10,2,2023,19,42,31,687,20,-0.496,0.238,9.641,0.027,-0.012,-0.016,0,0,0,28.312,-1,-25.875,-0.01,0.026,0.742,1000,1000
10,2,2023,19,42,31,707,20,-0.496,0.238,9.641,-0.012,-0.012,-0.016,0,0,0,28.312,-1,-25.875,-0.01,0.026,0.742,1000,1000
10,2,2023,19,42,31,727,20,-0.496,0.238,9.641,-0.012,-0.012,-0.016,0,0,0,28.312,-1,-25.875,-0.01,0.026,0.742,1000,1000
10,2,2023,19,42,31,747,20,-0.496,0.238,9.641,0.027,-0.012,0.023,0,0,0,28.312,-1,-25.875,-0.01,0.026,0.742,1000,1000
10,2,2023,19,42,31,767,20,-0.496,0.238,9.641,-0.012,-0.012,-0.016,0,0,0,28.312,-1,-25.875,-0.01,0.026,0.742,1000,1000
10,2,2023,19,42,31,787,20,-0.496,0.238,9.641,-0.012,-0.012,-0.016,0,0,0,28.312,-1,-25.875,-0.01,0.026,0.742,1000,1000
10,2,2023,19,42,31,807,20,-0.496,0.238,9.641,0.027,-0.012,-0.016,0,0,0,28.312,-1,-25.875,-0.01,0.026,0.742,1000,1000
10,2,2023,19,42,31,827,20,-0.496,0.238,9.641,-0.012,-0.012,-0.016,0,0,0,28.312,-1,-25.875,-0.01,0.026,0.742,1000,1000
10,2,2023,19,42,31,847,20,-0.496,0.238,9.641,-0.012,-0.012,-0.016,0,0,0,28.312,-1,-25.875,-0.01,0.026,0.742,1000,1000
10,2,2023,19,42,31,867,20,-0.496,0.238,9.641,0.027,-0.012,-0.016,0,0,0,28.312,-1,-25.875,-0.01,0.026,0.742,1000,1000
10,2,2023,19,42,31,887,20,-0.496,0.238,9.641,-0.012,-0.012,-0.016,0,0,0,28.312,-1,-25.875,-0.01,0.026,0.742,1000,1000
10,2,2023,19,42,31,907,20,-0.496,0.238,9.641,0.027,-0.012,0.023,0,0,0,28.312,-1,-25.875,-0.01,0.026,0.742,1000,1000
10,2,2023,19,42,31,927,20,-0.496,0.238,9.641,-0.047,-0.012,-0.016,0,0,0,28.312,-1,-25.875,-0.01,0.026,0.742,1000,1000
10,2,2023,19,42,31,947,20,-0.496,0.238,9.641,0.027,-0.012,-0.016,0,0,0,28.312,-1,-25.875,-0.01,0.026,0.742,1000,1000
10,2,2023,19,42,31,967,20,-0.496,0.238,9.641,0.027,-0.012,-0.016,0,0,0,28.375,-1.312,-24.438,-0.01,0.026,0.742,1000,1000
10,2,2023,19,42,31,987,20,-0.496,0.238,9.641,-0.012,-0.012,0.023,0,0,0,28.375,-1.312,-24.438,-0.01,0.026,0.742,1000,1000
10,2,2023,19,42,31,7,20,-0.496,0.238,9.641,-0.012,-0.012,-0.016,0,0,0,28.375,-1.312,-24.438,-0.01,0.026,0.742,1000,1000
10,2,2023,19,42,31,27,20,-0.496,0.238,9.641,-0.012,-0.012,0.023,0,0,0,28.375,-1.312,-24.438,-0.01,0.026,0.742,1000,1000
10,2,2023,19,42,31,47,20,-0.496,0.238,9.641,0.027,-0.012,0.023,0,0,0,28.375,-1.312,-24.438,-0.01,0.026,0.742,1000,1000
10,2,2023,19,42,31,67,20,-0.496,0.238,9.641,-0.012,-0.012,0.023,0,0,0,28.375,-1.312,-24.438,-0.01,0.026,0.742,1000,1000
10,2,2023,19,42,31,87,20,-0.496,0.238,9.641,-0.012,-0.051,-0.016,0,0,0,28.375,-1.312,-24.438,-0.01,0.026,0.742,1000,1000
10,2,2023,19,42,31,107,20,-0.496,0.238,9.641,-0.012,0.027,0.023,0,0,0,28.375,-1.312,-24.438,-0.01,0.026,0.742,1000,1000
10,2,2023,19,42,31,127,20,-0.496,0.238,9.641,-0.012,0.027,0.023,0,0,0,28.375,-1.312,-24.438,-0.01,0.026,0.742,1000,1000
10,2,2023,19,42,31,147,20,-0.496,0.238,9.641,-0.012,0.027,0.023,0,0,0,27.688,-1.375,-24,-0.01,0.026,0.742,1000,1000
10,2,2023,19,42,31,167,20,-0.496,0.238,9.641,-0.012,0.027,0.023,0,0,0,27.688,-1.375,-24,-0.01,0.026,0.742,1000,1000
10,2,2023,19,42,31,187,20,-0.496,0.238,9.641,-0.012,-0.051,0.023,0,0,0,27.688,-1.375,-24,-0.01,0.026,0.742,1000,1000
10,2,2023,19,42,31,207,20,-0.496,0.238,9.641,0.027,0.027,0.023,0,0,0,27.688,-1.375,-24,-0.01,0.026,0.742,1000,1000
10,2,2023,19,42,31,227,20,-0.496,0.238,9.641,-0.012,-0.051,0.023,0,0,0,27.688,-1.375,-24,-0.01,0.026,0.742,1000,1000
10,2,2023,19,42,31,247,20,-0.496,0.238,9.641,-0.012,0.027,-0.016,0,0,0,27.688,-1.375,-24,-0.01,0.026,0.742,1000,1000
10,2,2023,19,42,31,267,20,-0.496,0.238,9.641,-0.012,-0.051,0.016,0,0,0,27.688,-1.375,-24,-0.01,0.026,0.742,1000,1000
10,2,2023,19,42,31,287,20,-0.496,0.238,9.641,-0.012,-0.051,0.016,0,0,0,27.875,-2.188,-25.938,-0.01,0.026,0.742,1000,1000
10,2,2023,19,42,31,307,20,-0.496,0.238,9.641,-0.012,-0.051,0.016,0,0,0,27.875,-2.188,-25.938,-0.01,0.026,0.742,1000,1000
10,2,2023,19,42,31,327,20,-0.496,0.238,9.641,-0.012,-0.051,0.016,0,0,0,27,-1.438,-25,-0.01,0.026,0.742,1000,1000
10,2,2023,19,42,31,347,20,-0.496,0.238,9.641,0.027,-0.012,-0.023,0,0,0,27,-1.438,-25,-0.01,0.026,0.742,1000,1000
10,2,2023,19,42,31,367,20,-0.496,0.238,9.641,-0.012,-0.051,-0.016,0,0,0,27,-1.438,-25,-0.01,0.026,0.742,1000,1000
10,2,2023,19,42,31,387,20,-0.496,0.238,9.641,0.027,-0.012,0.023,0,0,0,27,-1.438,-25,-0.01,0.026,0.742,1000,1000
10,2,2023,19,42,31,407,20,-0.496,0.238,9.641,0.027,-0.012,0.023,0,0,0,27,-1.438,-25,-0.01,0.026,0.742,1000,1000
10,2,2023,19,42,31,427,20,-0.496,0.238,9.641,0.027,-0.012,0.023,0,0,0,28.625,-1.812,-25.375,-0.01,0.026,0.742,1000,1000
10,2,2023,19,42,31,447,20,-0.496,0.238,9.641,0.02,-0.012,-0.016,0,0,0,28.625,-1.812,-25.375,-0.01,0.026,0.742,1000,1000
10,2,2023,19,42,31,467,20,-0.496,0.238,9.641,0.02,-0.012,-0.016,0,0,0,27.688,-0.438,-26,-0.01,0.026,0.742,1000,1000
10,2,2023,19,42,31,487,20,-0.496,0.238,9.641,0.02,-0.012,-0.016,0,0,0,27.688,-0.438,-26,-0.01,0.026,0.742,1000,1000
10,2,2023,19,42,31,507,20,-0.496,0.238,9.641,-0.02,-0.012,-0.016,0,0,0,27.688,-0.438,-26,-0.01,0.026,0.742,1000,1000
10,2,2023,19,42,31,527,20,-0.496,0.238,9.641,-0.02,-0.012,0.023,0,0,0,27.688,-0.438,-26,-0.01,0.026,0.742,1000,1000
10,2,2023,19,42,31,547,20,-0.496,0.238,9.641,-0.02,-0.012,-0.016,0,0,0,27.688,-0.438,-26,-0.01,0.026,0.742,1000,1000
10,2,2023,19,42,31,567,20,-0.496,0.238,9.641,-0.02,-0.012,-0.016,0,0,0,29.125,-0.312,-25.312,-0.01,0.026,0.742,1000,1000
10,2,2023,19,42,31,587,20,-0.496,0.238,9.641,-0.02,-0.012,-0.016,0,0,0,29.125,-0.312,-25.312,-0.01,0.026,0.742,1000,1000
10,2,2023,19,42,31,607,20,-0.496,0.238,9.641,-0.02,-0.012,-0.016,0,0,0,28.375,-1.562,-24.438,-0.01,0.026,0.742,1000,1000
10,2,2023,19,42,31,627,20,-0.496,0.238,9.641,-0.012,-0.012,-0.016,0,0,0,28.375,-1.562,-24.438,-0.01,0.026,0.742,1000,1000
10,2,2023,19,42,31,647,20,-0.496,0.238,9.641,-0.012,-0.012,-0.016,0,0,0,28.625,-1.25,-26.375,-0.01,0.026,0.742,1000,1000
10,2,2023,19,42,32,667,20,-0.496,0.238,9.641,-0.012,-0.012,-0.016,0,0,0,28.625,-1.25,-26.375,-0.01,0.026,0.742,1000,1000
10,2,2023,19,42,32,687,20,-0.496,0.238,9.641,0.027,-0.012,-0.016,0,0,0,28.625,-1.25,-26.375,-0.01,0.026,0.742,1000,1000
10,2,2023,19,42,32,707,20,-0.496,0.238,9.641,0.027,-0.012,-0.016,0,0,0,28.312,-1.25,-25.938,-0.01,0.026,0.742,1000,1000
10,2,2023,19,42,32,727,20,-0.496,0.238,9.641,0.027,-0.012,-0.016,0,0,0,28.312,-1.25,-25.938,-0.01,0.026,0.742,1000,1000
10,2,2023,19,42,32,747,20,-0.496,0.238,9.641,0.027,-0.012,-0.016,0,0,0,27.625,-1.625,-25.438,-0.01,0.026,0.742,1000,1000
10,2,2023,19,42,32,767,20,-0.496,0.238,9.641,-0.012,-0.012,0.023,0,0,0,27.625,-1.625,-25.438,-0.01,0.026,0.742,1000,1000
10,2,2023,19,42,32,787,20,-0.496,0.238,9.641,-0.012,-0.012,0.023,0,0,0,28.625,-1.812,-25.375,-0.01,0.026,0.742,1000,1000
10,2,2023,19,42,32,807,20,-0.496,0.238,9.641,-0.012,-0.012,0.023,0,0,0,28.625,-1.812,-25.375,-0.01,0.026,0.742,1000,1000
10,2,2023,19,42,32,827,20,-0.496,0.238,9.641,-0.012,-0.012,0.023,0,0,0,28.625,-1.812,-25.375,-0.01,0.026,0.742,1000,1000
10,2,2023,19,42,32,847,20,-0.496,0.238,9.641,-0.012,-0.012,0.023,0,0,0,28.75,-0.062,-25.938,-0.01,0.026,0.742,1000,1000
10,2,2023,19,42,32,867,20,-0.496,0.238,9.641,-0.012,-0.012,0.023,0,0,0,28.75,-0.062,-25.938,-0.01,0.026,0.742,1000,1000
10,2,2023,19,42,32,887,20,-0.496,0.238,9.641,-0.012,-0.012,0.023,0,0,0,28.938,-1.5,-25.875,-0.01,0.026,0.742,1000,1000
10,2,2023,19,42,32,907,20,-0.496,0.238,9.641,-0.012,-0.012,-0.016,0,0,0,28.938,-1.5,-25.875,-0.01,0.026,0.742,1000,1000
10,2,2023,19,42,32,927,20,-0.496,0.238,9.641,-0.012,-0.012,-0.016,0,0,0,28.188,-2.125,-26.375,-0.01,0.026,0.742,1000,1000
10,2,2023,19,42,32,948,21,-0.496,0.238,9.641,0.027,0.027,-0.016,0,0,0,28.188,-2.125,-26.375,-0.01,0.026,0.742,1000,1000
10,2,2023,19,42,32,969,21,-0.496,0.238,9.641,0.027,0.027,-0.016,0,0,0,28.188,-2.125,-26.875,-0.01,0.026,0.742,1000,1000
10,2,2023,19,42,32,989,20,-0.496,0.238,9.641,0.027,0.027,-0.016,0,0,0,28.75,0,-26.875,-0.01,0.026,0.742,1000,1000
10,2,2023,19,42,32,9,20,-0.496,0.238,9.641,-0.012,-0.012,0.023,0,0,0,28.75,0,-26.875,-0.01,0.026,0.742,1000,1000
10,2,2023,19,42,32,29,20,-0.496,0.238,9.641,-0.012,-0.012,0.023,0,0,0,28.75,0,-26.875,-0.01,0.026,0.742,1000,1000
10,2,2023,19,42,32,49,20,-0.496,0.238,9.641,-0.012,-0.012,0.023,0,0,0,28.75,0,-26.875,-0.01,0.026,0.742,1000,1000
10,2,2023,19,42,32,70,21,-0.496,0.238,9.641,-0.012,-0.012,0.023,0,0,0,27.75,-2.125,-28.438,-0.01,0.026,0.742,1000,1000
